sequenceID,MappingManager_main_FrameID,rot_w,rot_x,rot_y,rot_z,pos_x,pos_y,pos_z,cur_time,currentLocation_Timestamp,latLon_x,latLon_y,accuracy,0,accuracy,XRCameraIntrinsics_focalLength_x,XRCameraIntrinsics_focalLength_y,XRCameraIntrinsics_resolution_x,XRCameraIntrinsics_resolution_y,XRCameraIntrinsics_principalPoint_x,XRCameraIntrinsics_principalPoint_y,compass,compassAccuracy,compassMagnetic,satelliteView,satelliteUsed,speedMetersPerSecond,Input_acceleration_x,Input_acceleration_y,Input_acceleration_z,gyro_userAcceleration_x,gyro_userAcceleration_y,gyro_userAcceleration_z,ArFoundationCameraStats_mainArFoundation_CurrentSpeed,ArFoundationCameraStats_mainArFoundation_CurrentAngleSpeed,ArFoundationCameraStats_mainArFoundation_TimeRangeAverage,ArFoundationCameraStats_mainArFoundation_InTimeRangeAverageSpeed,ArFoundationCameraStats_mainArFoundation_InTimeRangeAverageAngleSpeed,ArFoundationLightManager_main_LastIntensity,lightEstimationData_averageBrightness,lightEstimationData_averageColorTemperature,lightEstimationData_colorCorrection_Value_r,lightEstimationData_colorCorrection_Value_g,lightEstimationData_colorCorrection_Value_b,lightEstimationData_averageIntensityInLumens,lightEstimationData_mainLightIntensityLumens,lightEstimationData_averageMainLightBrightness,lastFrameEventArgs_exposureDuration,lastFrameEventArgs_exposureOffset,vApplication_version,bApplication_buildGUID,Exif_ApertureValue,Exif_Brightness,Exif_ExposureTime,Exif_ShutterSpeed,Exif_ExposureBias,Exif_FNumber,Exif_FocalLength,Exif_Flash,Exif_ColorSpace,Exif_PhotographicSensitivity,Exif_MeteringMode,depth_CameraConfiguredDepthSensorSupport,depth_LastRGBWidth,depth_LastRGBHeight,depth_LastDepthWidth,depth_LastDepthHeight,depth_LastDepthConfidenceWidth,depth_LastDepthConfidenceHeight,depth_LastDepthRawWidth,depth_LastDepthRawHeight,depth_LastDepthSmoothedWidth,depth_LastDepthSmoothedHeight,depth_LastHumanDepthWidth,depth_LastHumanDepthHeight,depth_LastHumanStencilWidth,depth_LastHumanStencilHeight

39,0000,0.7735693,0.100117,-0.6232373,0.0560583,3.344681,1.247523,-0.9331741,1776164337,1776164331.84116,49.081337,1.6287657,112,0,112,2539.594,2539.594,3840,2160,1934.017,1077.711,311.5582,15.16925,307.5914,-1,-1,-1,-0.01493835,-0.9624939,-0.1900635,-0.06097499,0.01348156,0.02985913,0.1728562,12.12788,1,0.2604252,11.3709,1.011284,0.4712583,5925.648,0,0,0,942.5165,0,0,0.00606060606060606,-0.07117517,v1.7.6,b16ec9c5d6ab84add850387b9fda50061,1.663754436006,5.28301864526493,0.00606060606060606,7.36575246222328,0,1.78,6.765,0,sRGB,64,Pattern,2,3840,2160,0,0,256,144,0,0,256,144,256,144,256,144
39,0001,0.770874,0.06696857,-0.6327158,0.03064764,3.400093,1.263175,-0.8170094,1776164337,1776164331.84116,49.081337,1.6287657,112,0,112,2539.605,2539.605,3840,2160,1934.216,1077.977,311.5582,15.14252,306.5834,-1,-1,-1,0.01794434,-0.9290619,-0.1508789,-0.02457596,0.06224263,-0.02438013,0.3324722,11.91536,1,0.2725461,12.19351,1.016864,0.4738588,5925.648,0,0,0,947.7177,0,0,0.00617283950617284,-0.06455897,v1.7.6,b16ec9c5d6ab84add850387b9fda50061,1.663754436006,5.25851108628978,0.00617283950617284,7.34425984099063,0,1.78,6.765,0,sRGB,64,Pattern,2,3840,2160,0,0,256,144,0,0,256,144,256,144,256,144
39,0002,0.7530304,0.08427583,-0.6520427,0.02613982,3.41507,1.246354,-0.684691,1776164338,1776164331.84116,49.081337,1.6287657,112,0,112,2539.656,2539.656,3840,2160,1934.124,1077.88,308.3799,18.47224,302.3892,-1,-1,-1,0.01792908,-0.9991913,0.01853943,-0.0684961,-0.01285017,0.16123,0.4256349,36.53367,1,0.3013481,12.82438,1.023577,0.4769868,5925.648,0,0,0,953.9736,0,0,0.00617283950617284,-0.0566489,v1.7.6,b16ec9c5d6ab84add850387b9fda50061,1.663754436006,5.25851108628978,0.00617283950617284,7.34425984099063,0,1.78,6.765,0,sRGB,64,Pattern,2,3840,2160,0,0,256,144,0,0,256,144,256,144,256,144
39,0003,0.7000989,0.07692951,-0.7096573,0.01816397,3.352135,1.229794,-0.5221381,1776164338,1776164331.84116,49.081337,1.6287657,112,0,112,2539.463,2539.463,3840,2160,1934.398,1077.771,308.3799,18.12864,295.2574,-1,-1,-1,-0.01118469,-1.080231,-0.06767273,-0.08234759,-0.08681279,0.04077066,0.6912625,18.29427,1,0.4125425,20.4121,1.012183,0.4716775,5925.648,0,0,0,943.3549,0,0,0.00617283950617284,-0.07010621,v1.7.6,b16ec9c5d6ab84add850387b9fda50061,1.663754436006,5.22781428906686,0.00617283950617284,7.34425984099063,0,1.78,6.765,0,sRGB,64,Pattern,2,3840,2160,0,0,256,144,0,0,256,144,256,144,256,144
39,0004,0.7207631,0.07645608,-0.6885427,0.02375078,3.246819,1.24739,-0.2656531,1776164338,1776164331.84116,49.081337,1.6287657,112,0,112,2540.1,2540.1,3840,2160,1934.825,1077.894,308.3799,17.91106,299.7028,-1,-1,-1,0.08796692,-0.8961487,-0.1309509,0.004273944,0.07841992,0.04421033,0.8684886,35.83277,1,0.6006341,24.58157,0.9841217,0.4586007,5925.648,0,0,0,917.2015,0,0,0.00617283950617284,-0.1039079,v1.7.6,b16ec9c5d6ab84add850387b9fda50061,1.663754436006,5.20435531624287,0.00617283950617284,7.34425984099063,0,1.78,6.765,0,sRGB,64,Pattern,2,3840,2160,0,0,256,144,0,0,256,144,256,144,256,144
39,0005,0.7236949,0.08495536,-0.6847745,0.01149747,3.199875,1.237183,-0.03127098,1776164339,1776164338.12997,49.0815964,1.63037753,137,0,137,2539.531,2539.531,3840,2160,1934.088,1077.5,302.8054,17.78745,298.3749,-1,-1,-1,0.02532959,-1.102539,-0.1685638,-0.0580029,-0.1237781,-0.05210406,0.8447699,14.91299,1,0.7330636,25.81169,0.9747089,0.4542143,5925.648,0,0,0,908.4286,0,0,0.00636942675159236,-0.1154624,v1.7.6,b16ec9c5d6ab84add850387b9fda50061,1.663754436006,5.17342150509535,0.00636942675159236,7.29630391278466,0,1.78,6.765,0,sRGB,64,Pattern,2,3840,2160,0,0,256,144,0,0,256,144,256,144,256,144
39,0006,0.6610291,0.07209346,-0.7461497,0.03322284,3.142082,1.241019,0.2564735,1776164339,1776164338.12997,49.0815964,1.63037753,137,0,137,2538.337,2538.337,3840,2160,1934.157,1077.215,302.8054,17.46998,286.0854,-1,-1,-1,0.1286469,-0.9349976,-0.1394043,0.02959206,0.08347899,-0.002246872,0.8634859,18.69077,1,0.8510541,27.15277,1.018781,0.474752,5925.648,0,0,0,949.5041,0,0,0.00680272108843537,-0.06229492,v1.7.6,b16ec9c5d6ab84add850387b9fda50061,1.663754436006,5.14385541397315,0.00680272108843537,7.20194782577114,0,1.78,6.765,0,sRGB,64,Pattern,2,3840,2160,0,0,256,144,0,0,256,144,256,144,256,144
39,0007,0.6162061,0.07479668,-0.7829992,0.04009822,3.038124,1.224105,0.5353088,1776164339,1776164338.12997,49.0815964,1.63037753,137,0,137,2538.553,2538.553,3840,2160,1934.245,1077.099,302.8054,17.32433,279.5267,-1,-1,-1,0.05725098,-1.160645,-0.170105,-0.005978163,-0.1742146,-0.01423751,0.9788593,17.10074,1,0.8766643,26.56566,1.02034,0.4754784,5925.648,0,0,0,950.9567,0,0,0.00684931506849315,-0.06045703,v1.7.6,b16ec9c5d6ab84add850387b9fda50061,1.663754436006,5.12990030629676,0.00684931506849315,7.19094452483476,0,1.78,6.765,0,sRGB,64,Pattern,2,3840,2160,0,0,256,144,0,0,256,144,256,144,256,144
39,0008,0.584242,0.09157763,-0.803556,0.06762142,2.88752,1.253997,0.7885952,1776164340,1776164338.12997,49.0815964,1.63037753,137,0,137,2538.655,2538.655,3840,2160,1934.789,1077.002,278.8885,17.27484,275.8885,-1,-1,-1,-0.03134155,-0.7655487,-0.1097412,-0.1406388,0.225646,0.04491939,0.7960799,13.72865,1,0.90888,28.99033,1.02851,0.4792855,5925.648,0,0,0,958.5711,0,0,0.00684931506849315,-0.0508689,v1.7.6,b16ec9c5d6ab84add850387b9fda50061,1.663754436006,5.14508671011144,0.00684931506849315,7.19094452483476,0,1.78,6.765,0,sRGB,64,Pattern,2,3840,2160,0,0,256,144,0,0,256,144,256,144,256,144
39,0009,0.5704891,0.09042627,-0.8149638,0.04689815,2.784027,1.26345,1.001078,1776164340,1776164338.12997,49.0815964,1.63037753,137,0,137,2539.787,2539.787,3840,2160,1934.19,1076.879,278.8885,17.08276,271.8087,-1,-1,-1,0.09777832,-1.095535,-0.2225952,0.03148441,-0.1105474,-0.07536145,0.8690968,16.77159,1,0.8799627,21.77026,0.9849189,0.4589722,5925.648,0,0,0,917.9444,0,0,0.00684931506849315,-0.1029345,v1.7.6,b16ec9c5d6ab84add850387b9fda50061,1.663754436006,5.08335772035973,0.00684931506849315,7.19094452483476,0,1.78,6.765,0,sRGB,64,Pattern,2,3840,2160,0,0,256,144,0,0,256,144,256,144,256,144
39,0010,0.5130073,0.08429766,-0.850729,0.07731571,2.664673,1.282623,1.249475,1776164340,1776164338.12997,49.0815964,1.63037753,137,0,137,2539.48,2539.48,3840,2160,1933.93,1077.306,278.8885,16.79129,263.0111,-1,-1,-1,0.119812,-0.8963623,-0.1786652,0.06743182,0.07714725,0.03169566,0.6843407,24.88241,1,0.8672555,26.18595,0.9998807,0.4659444,5925.648,0,0,0,931.8888,0,0,0.00684931506849315,-0.08480854,v1.7.6,b16ec9c5d6ab84add850387b9fda50061,1.663754436006,5.12224673375333,0.00684931506849315,7.19094452483476,0,1.78,6.765,0,sRGB,64,Pattern,2,3840,2160,0,0,256,144,0,0,256,144,256,144,256,144
39,0011,0.4730102,0.08109543,-0.8732779,0.08408725,2.512405,1.280932,1.423172,1776164341,1776164338.12997,49.0815964,1.63037753,137,0,137,2539.468,2539.468,3840,2160,1933.915,1076.787,262.2111,16.67596,258.0192,-1,-1,-1,-0.02330017,-1.004745,-0.1009827,-0.08783889,-0.02356791,0.06873232,0.761482,16.26121,1,0.78944,23.95229,1.017176,0.4740039,5925.648,0,0,0,948.0078,0,0,0.00684931506849315,-0.06419094,v1.7.6,b16ec9c5d6ab84add850387b9fda50061,1.663754436006,5.13751349040664,0.00684931506849315,7.19094452483476,0,1.78,6.765,0,sRGB,64,Pattern,2,3840,2160,0,0,256,144,0,0,256,144,256,144,256,144
39,0012,0.4646234,0.03743139,-0.8821404,0.06747179,2.263138,1.259298,1.606948,1776164341,1776164338.12997,49.0815964,1.63037753,137,0,137,2539.36,2539.36,3840,2160,1933.83,1077.848,262.2111,16.63695,254.2462,-1,-1,-1,0.1171417,-0.8927307,-0.1894531,0.1498132,0.09050167,-0.1189728,0.9279486,25.5138,1,0.838775,25.79158,0.9511878,0.4432535,5925.648,0,0,0,886.507,0,0,0.00684931506849315,-0.1448301,v1.7.6,b16ec9c5d6ab84add850387b9fda50061,1.663754436006,5.03526343215869,0.00684931506849315,7.19094452483476,0,1.78,6.765,0,sRGB,64,Pattern,2,3840,2160,0,0,256,144,0,0,256,144,256,144,256,144
39,0013,0.4263031,0.0487222,-0.9019668,0.04845243,2.078674,1.265833,1.743399,1776164341,1776164338.12997,49.0815964,1.63037753,137,0,137,2539.787,2539.787,3840,2160,1934.643,1077.532,262.2111,25.80606,249.4919,-1,-1,-1,-0.1044922,-0.8757477,-0.01020813,-0.1383936,0.1201992,0.09516211,0.7298455,29.62346,1,0.8117601,21.08925,1.006636,0.4690922,5925.648,0,0,0,938.1844,0,0,0.00757575757575758,-0.07671384,v1.7.6,b16ec9c5d6ab84add850387b9fda50061,1.663754436006,5.03212109143183,0.00757575757575758,7.04968986172373,0,1.78,6.765,0,sRGB,64,Pattern,2,3840,2160,0,0,256,144,0,0,256,144,256,144,256,144
39,0014,0.3369566,0.01781266,-0.9398245,0.05359904,1.878891,1.206825,1.895802,1776164342,1776164338.12997,49.0815964,1.63037753,137,0,137,2539.036,2539.036,3840,2160,1933.376,1077.496,241.7384,23.98487,237.4357,-1,-1,-1,0.08401489,-0.9674683,-0.1490326,0.07606385,0.01727057,-0.02105439,0.7518753,14.44597,1,0.8439259,27.27186,1.161969,0.5414774,5925.648,0,0,0,1082.955,0,0,0.00763358778625954,0.09581095,v1.7.6,b16ec9c5d6ab84add850387b9fda50061,1.663754436006,5.14968074021318,0.00763358778625954,7.03731920645994,0,1.78,6.765,0,sRGB,64,Pattern,2,3840,2160,0,0,256,144,0,0,256,144,256,144,256,144
39,0015,0.301301,0.01746327,-0.9511558,0.0649263,1.643265,1.19487,2.010213,1776164342,1776164338.12997,49.0815964,1.63037753,137,0,137,2539.611,2539.611,3840,2160,1934.818,1077.947,241.7384,23.2481,232.8429,-1,-1,-1,-0.09367371,-1.103333,-0.02514648,-0.1072296,-0.1240758,0.1321188,0.9493895,11.11079,1,0.800816,26.73807,1.127586,0.5254551,5925.648,0,0,0,1050.91,0,0,0.00719424460431655,0.0596994,v1.7.6,b16ec9c5d6ab84add850387b9fda50061,1.663754436006,5.13142945998172,0.00719424460431655,7.11858909807269,0,1.78,6.765,0,sRGB,64,Pattern,2,3840,2160,0,0,256,144,0,0,256,144,256,144,256,144
39,0016,0.2807465,0.02701494,-0.9568657,0.06971174,1.312889,1.199526,2.11141,1776164342,1776164338.12997,49.0815964,1.63037753,137,0,137,2539.946,2539.946,3840,2160,1934.631,1078.747,241.7384,26.58282,231.7332,-1,-1,-1,-0.03741455,-0.7574005,0.07533264,-0.05170976,0.2365209,0.1848848,0.9921855,16.99528,1,0.8916195,23.40857,1.071424,0.4992838,5925.648,0,0,0,998.5676,0,0,0.00719424460431655,-0.001723282,v1.7.6,b16ec9c5d6ab84add850387b9fda50061,1.663754436006,5.04853645163337,0.00719424460431655,7.11858909807269,0,1.78,6.765,0,sRGB,64,Pattern,2,3840,2160,0,0,256,144,0,0,256,144,256,144,256,144
39,0017,0.2233948,0.02890343,-0.9731915,0.04645219,1.039146,1.202269,2.218519,1776164343,1776164338.12997,49.0815964,1.63037753,137,0,137,2539.611,2539.611,3840,2160,1934.321,1077.68,230.0051,26.64132,224.3207,-1,-1,-1,-0.0644989,-1.077438,-0.04380798,-0.05771645,-0.08968318,0.05896229,0.8512281,39.17599,1,0.925637,20.17989,1.043033,0.4860533,5925.648,0,0,0,972.1066,0,0,0.00719424460431655,-0.03401133,v1.7.6,b16ec9c5d6ab84add850387b9fda50061,1.663754436006,5.03293959658236,0.00719424460431655,7.11858909807269,0,1.78,6.765,0,sRGB,64,Pattern,2,3840,2160,0,0,256,144,0,0,256,144,256,144,256,144
39,0018,0.1497975,0.03816117,-0.9851592,0.07460451,0.7871094,1.252819,2.331967,1776164343,1776164338.12997,49.0815964,1.63037753,137,0,137,2540.736,2540.736,3840,2160,1934.515,1077.536,230.0051,26.78693,215.9164,-1,-1,-1,-0.002426147,-0.8541412,-0.04621887,-0.03712079,0.1335336,0.09931134,0.7329615,21.61345,1,0.9428111,25.66711,1.102612,0.5138174,5925.648,0,0,0,1027.635,0,0,0.00719424460431655,0.03277311,v1.7.6,b16ec9c5d6ab84add850387b9fda50061,1.663754436006,5.08680646856109,0.00719424460431655,7.11858909807269,0,1.78,6.765,0,sRGB,64,Pattern,2,3840,2160,0,0,256,144,0,0,256,144,256,144,256,144
39,0019,0.1009679,0.02502477,-0.9923779,0.06607062,0.5537567,1.235348,2.35779,1776164343,1776164338.12997,49.0815964,1.63037753,137,0,137,2540.85,2540.85,3840,2160,1933.781,1077.174,230.0051,25.77955,211.3408,-1,-1,-1,0.01792908,-1.211655,-0.1064758,-0.02310031,-0.2178108,0.0357765,0.9336612,12.29716,1,0.8595729,27.95781,1.113281,0.518789,5925.648,0,0,0,1037.578,0,0,0.00719424460431655,0.04434981,v1.7.6,b16ec9c5d6ab84add850387b9fda50061,1.663754436006,5.07162006474642,0.00719424460431655,7.11858909807269,0,1.78,6.765,0,sRGB,64,Pattern,2,3840,2160,0,0,256,144,0,0,256,144,256,144,256,144
39,0020,0.06747225,0.01210427,-0.9937871,0.08768316,0.2351074,1.269627,2.327943,1776164344,1776164338.12997,49.0815964,1.63037753,137,0,137,2540.924,2540.924,3840,2160,1934.81,1077.969,209.5107,25.14982,205.2377,-1,-1,-1,-0.00680542,-0.7442322,-0.1002655,-0.01077891,0.2429764,0.06088591,0.8923135,20.90166,1,0.8886619,26.20485,1.06523,0.4963972,5925.648,0,0,0,992.7944,0,0,0.00719424460431655,-0.008694271,v1.7.6,b16ec9c5d6ab84add850387b9fda50061,1.663754436006,5.01717228072404,0.00719424460431655,7.11858909807269,0,1.78,6.765,0,sRGB,64,Pattern,2,3840,2160,0,0,256,144,0,0,256,144,256,144,256,144
39,0021,-0.01869389,0.001734482,-0.9980593,0.05937489,-0.0189743,1.284025,2.276582,1776164344,1776164338.12997,49.0815964,1.63037753,137,0,137,2541.003,2541.003,3840,2160,1934.196,1076.951,209.5107,27.5223,192.8729,-1,-1,-1,-0.06425476,-1.129913,-0.04850769,-0.07801701,-0.1223932,0.1051934,0.8030103,40.00102,1,0.8644724,25.11582,1.0955,0.510503,5925.648,0,0,0,1021.006,0,0,0.00719424460431655,0.02499277,v1.7.6,b16ec9c5d6ab84add850387b9fda50061,1.663754436006,5.08680646856109,0.00719424460431655,7.11858909807269,0,1.78,6.765,0,sRGB,64,Pattern,2,3840,2160,0,0,256,144,0,0,256,144,256,144,256,144
39,0022,-0.1215413,-0.006359268,-0.9900221,0.07101952,-0.2387772,1.317886,2.206746,1776164344,1776164338.12997,49.0815964,1.63037753,137,0,137,2540.702,2540.702,3840,2160,1934.333,1077.679,209.5107,24.38863,182.4474,-1,-1,-1,-0.02799988,-0.868866,-0.03038025,-0.02909498,0.1246586,0.1114062,0.6692437,34.15168,1,0.8400379,31.68262,1.201415,0.5598592,5908.128,0,0,0,1119.718,0,0,0.00694444444444444,0.1359467,v1.7.6,b16ec9c5d6ab84add850387b9fda50061,1.663754436006,5.21664461758483,0.00694444444444444,7.17459534315873,0,1.78,6.765,0,sRGB,64,Pattern,2,3840,2160,0,0,256,144,0,0,256,144,256,144,256,144
39,0023,-0.1818789,-0.01438679,-0.9806478,0.07101426,-0.4401779,1.283765,2.040792,1776164345,1776164338.12997,49.0815964,1.63037753,137,0,137,2539.679,2539.679,3840,2160,1933.823,1078.1,180.2793,24.38863,178.4828,-1,-1,-1,-0.1410217,-1.161682,-0.1268616,-0.06226302,-0.1762232,-0.0417109,0.9540625,7.207472,1,0.7738474,32.68462,1.149301,0.5355741,5832.135,0,0,0,1071.148,0,0,0.00617283950617284,0.0826317,v1.7.6,b16ec9c5d6ab84add850387b9fda50061,1.663754436006,5.27806811258244,0.00617283950617284,7.34121543834616,0,1.78,6.765,0,sRGB,64,Pattern,2,3840,2160,0,0,256,144,0,0,256,144,256,144,256,144
39,0024,-0.1672095,-0.008264158,-0.9839416,0.06190092,-0.6830292,1.326228,1.85017,1776164345,1776164338.12997,49.0815964,1.63037753,137,0,137,2539.565,2539.565,3840,2160,1934.948,1078.647,180.2793,23.30442,180.5714,-1,-1,-1,-0.01287842,-0.8528442,-0.1280365,-0.001583645,0.1440913,-0.02216291,0.8070018,22.88177,1,0.8270544,27.05353,1.003744,0.4677445,5832.135,0,0,0,935.4891,0,0,0.00606060606060606,-0.08017276,v1.7.6,b16ec9c5d6ab84add850387b9fda50061,1.663754436006,5.1402180448659,0.00606060606060606,7.36575246222328,0,1.78,6.765,0,sRGB,64,Pattern,2,3840,2160,0,0,256,144,0,0,256,144,256,144,256,144
39,0025,-0.1888126,-0.02189673,-0.9810094,0.03861443,-0.8967133,1.3087,1.678009,1776164345,1776164338.12997,49.0815964,1.63037753,137,0,137,2539.514,2539.514,3840,2160,1933.857,1077.817,180.2793,22.92838,176.9596,-1,-1,-1,0.01472473,-1.020981,-0.1393433,0.04448681,-0.03411776,-0.0304774,0.8692955,30.59731,1,0.867326,18.52831,0.991725,0.4621438,5832.135,0,0,0,924.2877,0,0,0.00636942675159236,-0.09465512,v1.7.6,b16ec9c5d6ab84add850387b9fda50061,1.663754436006,5.10634619758156,0.00636942675159236,7.29335894269059,0,1.78,6.765,0,sRGB,64,Pattern,2,3840,2160,0,0,256,144,0,0,256,144,256,144,256,144
39,0026,-0.2573223,-0.01856374,-0.963075,0.07698765,-1.043259,1.311427,1.454198,1776164346,1776164338.12997,49.0815964,1.63037753,137,0,137,2539.912,2539.912,3840,2160,1934.454,1077.824,175.3273,21.6098,169.9351,-1,-1,-1,0.02854919,-0.9880829,-0.0226593,0.02816168,-0.009995222,0.1205208,0.8225816,25.68216,1,0.8750064,21.87446,1.090453,0.5081513,5832.135,0,0,0,1016.303,0,0,0.00645161290322581,0.01944167,v1.7.6,b16ec9c5d6ab84add850387b9fda50061,1.663754436006,5.19912355875595,0.00645161290322581,7.27872359632219,0,1.78,6.765,0,sRGB,64,Pattern,2,3840,2160,0,0,256,144,0,0,256,144,256,144,256,144
39,0027,-0.2908354,-0.0352367,-0.954643,0.05319716,-1.117561,1.284025,1.155375,1776164346,1776164338.12997,49.0815964,1.63037753,137,0,137,2540.071,2540.071,3840,2160,1934.148,1077.505,175.3273,21.24665,165.4626,-1,-1,-1,-0.05575562,-0.9713287,-0.1878815,-0.03313158,0.02565712,-0.07466006,1.066829,26.71749,1,0.8699915,23.28403,1.115321,0.5197396,5832.135,0,0,0,1039.479,0,0,0.00645161290322581,0.04655067,v1.7.6,b16ec9c5d6ab84add850387b9fda50061,1.663754436006,5.21430996257063,0.00645161290322581,7.27872359632219,0,1.78,6.765,0,sRGB,64,Pattern,2,3840,2160,0,0,256,144,0,0,256,144,256,144,256,144
39,0028,-0.3342856,-0.01857089,-0.9408707,0.05167885,-1.188065,1.304402,0.8661127,1776164346,1776164338.12997,49.0815964,1.63037753,137,0,137,2539.548,2539.548,3840,2160,1934.763,1078.13,175.3273,24.64074,160.7543,-1,-1,-1,-0.05441284,-0.9229279,-0.1044312,-0.05050521,0.06104887,-0.001466215,0.8332549,35.33068,1,0.9011014,25.97867,1.141002,0.531707,5832.135,0,0,0,1063.414,0,0,0.00645161290322581,0.07391958,v1.7.6,b16ec9c5d6ab84add850387b9fda50061,1.663754436006,5.25159097865009,0.00645161290322581,7.27872359632219,0,1.78,6.765,0,sRGB,64,Pattern,2,3840,2160,0,0,256,144,0,0,256,144,256,144,256,144
39,0029,-0.4362997,-0.03296432,-0.8976052,0.05348673,-1.254639,1.284142,0.608675,1776164347,1776164338.12997,49.0815964,1.63037753,137,0,137,2540.088,2540.088,3840,2160,1933.79,1077.804,154.0511,21.82657,147.226,-1,-1,-1,0.1403961,-0.8712311,-0.3726196,0.1404888,0.1155887,-0.2185062,0.684898,63.43383,1,0.8988738,30.62959,1.246475,0.5808571,5832.135,0,0,0,1161.714,0,0,0.00581395348837209,0.1802126,v1.7.6,b16ec9c5d6ab84add850387b9fda50061,1.663754436006,5.46972779705024,0.00581395348837209,7.42923398912618,0,1.78,6.765,0,sRGB,64,Pattern,2,3840,2160,0,0,256,144,0,0,256,144,256,144,256,144
39,0030,-0.5368836,-0.04193794,-0.8393764,0.07378693,-1.241951,1.279717,0.3956766,1776164347,1776164338.12997,49.0815964,1.63037753,137,0,137,2540.776,2540.776,3840,2160,1934.767,1077.007,154.0511,20.50391,133.911,-1,-1,-1,-0.07800293,-1.034912,-0.0446167,-0.07565507,-0.04288274,0.1139408,0.6814724,25.82065,1,0.8047236,39.2208,1.40012,0.6524561,5832.135,0,0,0,1304.912,0,0,0.00418410041841004,0.3199606,v1.7.6,b16ec9c5d6ab84add850387b9fda50061,1.663754436006,5.92460710319338,0.00418410041841004,7.89986736658387,0,1.78,6.765,0,sRGB,64,Pattern,2,3840,2160,0,0,256,144,0,0,256,144,256,144,256,144
39,0031,-0.593087,-0.0568189,-0.8013977,0.05273727,-1.184013,1.264422,0.1209707,1776164347,1776164338.12997,49.0815964,1.63037753,137,0,137,2539.736,2539.736,3840,2160,1934.143,1078.158,154.0511,20.24212,127.4294,-1,-1,-1,0.0415802,-0.839386,-0.04881287,0.03352588,0.1649339,0.09946831,0.8587427,10.72526,1,0.7841496,40.00471,1.327044,0.6184026,5832.135,0,0,0,1236.805,0,0,0.00246913580246914,0.2555152,v1.7.6,b16ec9c5d6ab84add850387b9fda50061,1.663754436006,6.43953286164434,0.00246913580246914,8.66302656902405,0,1.78,6.765,0,sRGB,80,Pattern,2,3840,2160,0,0,256,144,0,0,256,144,256,144,256,144
39,0032,-0.6505957,-0.04009409,-0.7566494,0.05098576,-1.136406,1.261731,-0.1732216,1776164348,1776164338.12997,49.0815964,1.63037753,137,0,137,2539.719,2539.719,3840,2160,1934.182,1078.395,125.7762,43.79967,117.4377,-1,-1,-1,0.02888489,-1.145248,-0.08462524,0.03108224,-0.146634,0.008609533,0.8923955,36.49419,1,0.7931103,32.99397,1.449274,0.6753618,5832.135,0,0,0,1350.724,0,0,0.00194552529182879,0.3614436,v1.7.6,b16ec9c5d6ab84add850387b9fda50061,1.663754436006,6.95564673807512,0.00194552529182879,9.00527257454306,0,1.78,6.765,0,sRGB,80,Pattern,2,3840,2160,0,0,256,144,0,0,256,144,256,144,256,144
39,0033,-0.7521411,-0.06098644,-0.6542141,0.05067849,-1.060127,1.302065,-0.4287462,1776164348,1776164338.12997,49.0815964,1.63037753,137,0,137,2539.685,2539.685,3840,2160,1934.633,1077.813,125.7762,35.49734,99.73273,-1,-1,-1,0.05665588,-0.8453369,-0.06980896,0.05588541,0.1548108,0.02739175,0.7022085,51.28855,1,0.8479339,34.93468,1.549896,0.7222513,5832.135,0,0,0,1444.503,0,0,0.00100806451612903,0.442144,v1.7.6,b16ec9c5d6ab84add850387b9fda50061,1.663754436006,7.91720806267543,0.00100806451612903,9.95428864582426,0,1.78,6.765,0,sRGB,80,Pattern,2,3840,2160,0,0,256,144,0,0,256,144,256,144,256,144
39,0034,-0.8213402,-0.06745905,-0.5651127,0.03869347,-0.8997574,1.290728,-0.5921388,1776164348,1776164338.12997,49.0815964,1.63037753,137,0,137,2539.974,2539.974,3840,2160,1933.943,1077.168,125.7762,34.33243,88.35077,-1,-1,-1,-0.05122375,-1.147934,-0.08328247,-0.02429076,-0.1611548,0.07814211,0.8288407,30.66991,1,0.7974809,39.60513,1.11255,0.5184484,5832.135,0,0,0,1036.897,0,0,0.00074794315632012,0.04356029,v1.7.6,b16ec9c5d6ab84add850387b9fda50061,1.663754436006,7.85339648948973,0.00074794315632012,10.3846741094365,0,1.78,6.765,0,sRGB,80,Pattern,2,3840,2160,0,0,256,144,0,0,256,144,256,144,256,144
39,0035,-0.856313,-0.07057564,-0.5098849,0.04200615,-0.6819229,1.315986,-0.7606878,1776164349,1776164338.12997,49.0815964,1.63037753,137,0,137,2539.707,2539.707,3840,2160,1934.452,1078.224,86.76257,36.78077,82.39508,-1,-1,-1,-0.003341675,-0.8634338,-0.1198578,-0.03313461,0.137424,0.0289156,0.7141051,26.29246,1,0.798965,39.58225,0.9163367,0.4270129,5832.135,0,0,0,854.0258,0,0,0.00076103500761035,-0.1897071,v1.7.6,b16ec9c5d6ab84add850387b9fda50061,1.663754436006,7.6263579699543,0.00076103500761035,10.3598159258206,0,1.78,6.765,0,sRGB,80,Pattern,2,3840,2160,0,0,256,144,0,0,256,144,256,144,256,144
39,0036,0.9068727,0.05655836,0.4163769,-0.0318361,-0.4911728,1.301004,-0.8966408,1776164349,1776164338.12997,49.0815964,1.63037753,137,0,137,2539.821,2539.821,3840,2160,1933.825,1077.781,86.76257,33.40871,65.319,-1,-1,-1,0.005325317,-1.133575,0.01242065,0.02597349,-0.140225,0.09272032,0.7417864,50.20506,1,0.7569708,35.3142,0.6967697,0.3246947,5832.135,0,0,0,649.3894,0,0,0.0011001100110011,-0.5190369,v1.7.6,b16ec9c5d6ab84add850387b9fda50061,1.663754436006,6.72081084987193,0.0011001100110011,9.82828076091215,0,1.78,6.765,0,sRGB,80,Pattern,2,3840,2160,0,0,256,144,0,0,256,144,256,144,256,144
39,0037,0.9672853,0.06964979,0.2430162,-0.02124611,-0.3055954,1.320131,-1.02455,1776164349,1776164338.12997,49.0815964,1.63037753,137,0,137,2539.548,2539.548,3840,2160,1934.446,1077.564,86.76257,30.83235,48.72104,-1,-1,-1,-0.06185913,-0.9434357,-0.05293274,-0.02434586,0.008468688,0.1281716,0.5208466,49.59943,1,0.766571,47.97129,0.7656875,0.3568104,5832.135,0,0,0,713.6207,0,0,0.00380228136882129,-0.4056422,v1.7.6,b16ec9c5d6ab84add850387b9fda50061,1.663754436006,5.35092190801689,0.00380228136882129,8.04130429230307,0,1.78,6.765,0,sRGB,64,Pattern,2,3840,2160,0,0,256,144,0,0,256,144,256,144,256,144
39,0038,0.9836318,0.06467312,0.1670121,-0.01982168,-0.1174545,1.306868,-1.054722,1776164350,1776164338.12997,49.0815964,1.63037753,137,0,137,2539.696,2539.696,3840,2160,1933.981,1077.714,46.01657,30.49901,40.3038,-1,-1,-1,0.07601929,-1.063828,-0.1794281,0.06476959,-0.07852119,-0.04677291,0.7354811,28.39286,1,0.6860184,49.14146,0.8991892,0.4190222,5832.135,0,0,0,838.0444,0,0,0.00546448087431694,-0.2124179,v1.7.6,b16ec9c5d6ab84add850387b9fda50061,1.663754436006,5.13833082380201,0.00546448087431694,7.51266183806627,0,1.78,6.765,0,sRGB,64,Pattern,2,3840,2160,0,0,256,144,0,0,256,144,256,144,256,144
39,0039,0.9885042,0.07931367,0.1240731,-0.03427553,0.0669632,1.313506,-1.07301,1776164350,1776164338.12997,49.0815964,1.63037753,137,0,137,2539.4,2539.4,3840,2160,1934.184,1077.84,46.01657,29.85171,35.13132,-1,-1,-1,0.09555054,-0.9115906,-0.132019,0.04015462,0.07649088,0.03107172,0.569207,17.54827,1,0.6593484,44.15304,0.9491809,0.4423183,5832.135,0,0,0,884.6366,0,0,0.00625,-0.1473693,v1.7.6,b16ec9c5d6ab84add850387b9fda50061,1.663754436006,5.07844192897898,0.00625,7.32008262608325,0,1.78,6.765,0,sRGB,64,Pattern,2,3840,2160,0,0,256,144,0,0,256,144,256,144,256,144
39,0040,0.9963969,0.07581909,0.001074463,-0.03799334,0.2104645,1.297435,-1.080465,1776164350,1776164338.12997,49.0815964,1.63037753,137,0,137,2539.673,2539.673,3840,2160,1933.84,1076.85,46.01657,29.27953,21.00775,-1,-1,-1,-0.001754761,-1.071838,-0.248764,-0.07044765,-0.05821705,-0.1153029,0.4489015,44.91346,1,0.5536236,32.46301,0.8513747,0.3967406,5832.135,0,0,0,793.4812,0,0,0.0072992700729927,-0.2781101,v1.7.6,b16ec9c5d6ab84add850387b9fda50061,1.663754436006,4.75505607700557,0.0072992700729927,7.09275858361561,0,1.78,6.765,0,sRGB,64,Pattern,2,3840,2160,0,0,256,144,0,0,256,144,256,144,256,144
39,0041,0.9905525,0.06199052,-0.1223003,0.002352532,0.399147,1.3042,-1.133013,1776164351,1776164338.12997,49.0815964,1.63037753,137,0,137,2539.599,2539.599,3840,2160,1934.164,1077.58,11.62158,28.11664,4.530701,-1,-1,-1,0.01846313,-0.9304962,-0.1785278,0.01576895,0.05836785,-0.03448659,0.6520457,29.74773,1,0.5669386,37.59301,0.9212799,0.4293164,5832.135,0,0,0,858.6329,0,0,0.00826446280991736,-0.1832389,v1.7.6,b16ec9c5d6ab84add850387b9fda50061,1.663754436006,4.62864944461785,0.00826446280991736,6.92349015845592,0,1.78,6.765,0,sRGB,64,Pattern,2,3840,2160,0,0,256,144,0,0,256,144,256,144,256,144
39,0042,0.9828416,0.07283033,-0.1693124,0.007171215,0.6039886,1.312393,-1.11753,1776164351,1776164338.12997,49.0815964,1.63037753,137,0,137,2539.65,2539.65,3840,2160,1934.253,1078.133,11.62158,27.87296,359.9445,-1,-1,-1,-0.06983948,-0.9513397,-0.03727722,-0.04830184,0.03107744,0.06888652,0.6386945,8.868605,1,0.5605317,37.19641,1.013847,0.4724526,5832.135,0,0,0,944.9053,0,0,0.00826446280991736,-0.06813198,v1.7.6,b16ec9c5d6ab84add850387b9fda50061,1.663754436006,4.65062009790121,0.00826446280991736,6.92349015845592,0,1.78,6.765,0,sRGB,80,Pattern,2,3840,2160,0,0,256,144,0,0,256,144,256,144,256,144
39,0043,0.9715804,0.06601446,-0.227316,0.0009773523,0.8122482,1.30633,-1.036036,1776164351,1776164338.12997,49.0815964,1.63037753,137,0,137,2540.259,2540.259,3840,2160,1934.011,1078.204,11.62158,27.34944,353.8097,-1,-1,-1,0.135437,-0.9887848,-0.005889893,0.1151597,-0.01897281,0.1207997,0.6063433,40.12725,1,0.6405017,31.73773,1.063465,0.4955749,5832.135,0,0,0,991.1497,0,0,0.00826446280991736,-0.01068757,v1.7.6,b16ec9c5d6ab84add850387b9fda50061,1.663754436006,4.69004270660313,0.00826446280991736,6.92349015845592,0,1.78,6.765,0,sRGB,80,Pattern,2,3840,2160,0,0,256,144,0,0,256,144,256,144,256,144
39,0044,0.9534806,0.06373432,-0.2944529,-0.01050408,0.9854202,1.314392,-0.9764948,1776164352,1776164338.12997,49.0815964,1.63037753,137,0,137,2539.741,2539.741,3840,2160,1934.248,1077.316,352.1373,27.01384,347.0749,-1,-1,-1,0.02947998,-1.04892,-0.1618042,-0.02332551,-0.05292279,-0.05949646,0.5638525,22.14093,1,0.6292186,25.12136,1.115276,0.5197186,5832.135,0,0,0,1039.437,0,0,0.00826446280991736,0.04650227,v1.7.6,b16ec9c5d6ab84add850387b9fda50061,1.663754436006,4.74718661370674,0.00826446280991736,6.92349015845592,0,1.78,6.765,0,sRGB,80,Pattern,2,3840,2160,0,0,256,144,0,0,256,144,256,144,256,144
39,0045,0.9332991,0.09661584,-0.3456773,0.01120526,1.173676,1.31332,-0.9205589,1776164352,1776164338.12997,49.0815964,1.63037753,137,0,137,2539.883,2539.883,3840,2160,1933.871,1077.569,352.1373,25.46067,339.4979,-1,-1,-1,0.04933167,-0.9195099,0.05895996,-0.009924937,0.0740943,0.2005623,0.4703578,21.56746,1,0.6195915,28.26602,1.180807,0.5502561,5896.523,0,0,0,1100.512,0,0,0.00826446280991736,0.1151459,v1.7.6,b16ec9c5d6ab84add850387b9fda50061,1.663754436006,4.82911364735291,0.00826446280991736,6.92349015845592,0,1.78,6.765,0,sRGB,80,Pattern,2,3840,2160,0,0,256,144,0,0,256,144,256,144,256,144
