sequenceID,MappingManager_main_FrameID,rot_w,rot_x,rot_y,rot_z,pos_x,pos_y,pos_z,cur_time,currentLocation_Timestamp,latLon_x,latLon_y,accuracy,0,accuracy,XRCameraIntrinsics_focalLength_x,XRCameraIntrinsics_focalLength_y,XRCameraIntrinsics_resolution_x,XRCameraIntrinsics_resolution_y,XRCameraIntrinsics_principalPoint_x,XRCameraIntrinsics_principalPoint_y,compass,compassAccuracy,compassMagnetic,satelliteView,satelliteUsed,speedMetersPerSecond,Input_acceleration_x,Input_acceleration_y,Input_acceleration_z,gyro_userAcceleration_x,gyro_userAcceleration_y,gyro_userAcceleration_z,ArFoundationCameraStats_mainArFoundation_CurrentSpeed,ArFoundationCameraStats_mainArFoundation_CurrentAngleSpeed,ArFoundationCameraStats_mainArFoundation_TimeRangeAverage,ArFoundationCameraStats_mainArFoundation_InTimeRangeAverageSpeed,ArFoundationCameraStats_mainArFoundation_InTimeRangeAverageAngleSpeed,ArFoundationLightManager_main_LastIntensity,lightEstimationData_averageBrightness,lightEstimationData_averageColorTemperature,lightEstimationData_colorCorrection_Value_r,lightEstimationData_colorCorrection_Value_g,lightEstimationData_colorCorrection_Value_b,lightEstimationData_averageIntensityInLumens,lightEstimationData_mainLightIntensityLumens,lightEstimationData_averageMainLightBrightness,lastFrameEventArgs_exposureDuration,lastFrameEventArgs_exposureOffset,vApplication_version,bApplication_buildGUID,Exif_ApertureValue,Exif_Brightness,Exif_ExposureTime,Exif_ShutterSpeed,Exif_ExposureBias,Exif_FNumber,Exif_FocalLength,Exif_Flash,Exif_ColorSpace,Exif_PhotographicSensitivity,Exif_MeteringMode,depth_CameraConfiguredDepthSensorSupport,depth_LastRGBWidth,depth_LastRGBHeight,depth_LastDepthWidth,depth_LastDepthHeight,depth_LastDepthConfidenceWidth,depth_LastDepthConfidenceHeight,depth_LastDepthRawWidth,depth_LastDepthRawHeight,depth_LastDepthSmoothedWidth,depth_LastDepthSmoothedHeight,depth_LastHumanDepthWidth,depth_LastHumanDepthHeight,depth_LastHumanStencilWidth,depth_LastHumanStencilHeight

77,0000,-0.9790426,-0.2028107,-0.01800059,-0.004415456,-0.08436966,1.131387,-2.362232,1773713820,1773713777,14.5503733333333,121.028731666667,2.1,0,2.1,1459.607,1458.875,1920,1080,974.0461,533.5496,0,1,186.3707,66,33,0.08647333,-0.006835938,-0.9094239,-0.4282227,0,0,0,0.08249834,6.847679,1,0.06099777,15.94073,1.121885,0.5227984,0,0.9814734,1,1.007047,1045.597,0,0,0,0,v1.7.5,b42db3cbbed4e482298d0c5195f61e63e,0,0,0,0,0,0,0,0,0,0,0,1,1920,1080,0,0,0,0,0,0,0,0,0,0,0,0
77,0001,-0.9802656,-0.1900861,-0.05383237,0.006983565,-0.2033997,1.135849,-2.354829,1773713821,1773713777,14.5503733333333,121.028731666667,2.1,0,2.1,1459.607,1458.875,1920,1080,974.0461,533.5496,0,1,192.391,66,32,0.08647333,0.01416016,-0.9106445,-0.3657227,0,0,0,0.1865697,8.75067,1,0.1555374,16.08543,1.02672,0.4784516,0,0.9781568,1,1.012621,956.9032,0,0,0,0,v1.7.5,b42db3cbbed4e482298d0c5195f61e63e,0,0,0,0,0,0,0,0,0,0,0,1,1920,1080,0,0,0,0,0,0,0,0,0,0,0,0
77,0002,-0.9762768,-0.1916945,-0.09414013,0.03570183,-0.3238564,1.147456,-2.339969,1773713821,1773713777,14.5503733333333,121.028731666667,2.1,0,2.1,1459.607,1458.875,1920,1080,974.0461,533.5496,0,1,201.5963,66,31,0.08647333,0.04980469,-0.9506837,-0.2783203,0,0,0,0.2502995,20.06157,1,0.2864624,19.19858,1.083583,0.5049496,0,0.9847365,1,1.009325,1009.899,0,0,0,0,v1.7.5,b42db3cbbed4e482298d0c5195f61e63e,0,0,0,0,0,0,0,0,0,0,0,1,1920,1080,0,0,0,0,0,0,0,0,0,0,0,0
77,0003,-0.9839852,-0.1503475,-0.08770657,0.03842413,-0.4385195,1.145629,-2.267466,1773713821,1773713777,14.5503733333333,121.028731666667,2.1,0,2.1,1459.607,1458.875,1920,1080,974.0461,533.5496,0,1,193.9312,66,31,0.08647333,0.006591796,-0.9128418,-0.3537598,0,0,0,0.4907796,13.49566,1,0.3475188,19.50809,1.002686,0.4672518,0,0.9793221,1,1.014653,934.5035,0,0,0,0,v1.7.5,b42db3cbbed4e482298d0c5195f61e63e,0,0,0,0,0,0,0,0,0,0,0,1,1920,1080,0,0,0,0,0,0,0,0,0,0,0,0
77,0004,-0.9864497,-0.1193717,-0.09134116,0.06576009,-0.5250254,1.156952,-2.172816,1773713822,1773713777,14.5503733333333,121.028731666667,2.1,0,2.1,1459.607,1458.875,1920,1080,974.0461,533.5496,0,1,206.5429,66,31,0.08647333,0.04589844,-0.9709473,-0.3190918,0,0,0,0.2485109,21.2538,1,0.3737618,18.71038,0.9915625,0.4620681,0,0.9801345,1,1.009,924.1362,0,0,0,0,v1.7.5,b42db3cbbed4e482298d0c5195f61e63e,0,0,0,0,0,0,0,0,0,0,0,1,1920,1080,0,0,0,0,0,0,0,0,0,0,0,0
77,0005,-0.9813168,-0.1127928,-0.1370808,0.07418979,-0.6656895,1.14086,-2.123153,1773713822,1773713777,14.5503733333333,121.028731666667,2.1,0,2.1,1459.607,1458.875,1920,1080,974.0461,533.5496,0,1,228.4958,66,31,0.08647333,0.1103516,-1.005127,-0.2451172,0,0,0,0.4778975,33.24474,1,0.4662434,23.78585,0.983531,0.4583254,0,0.9871278,1,0.9950169,916.6509,0,0,0,0,v1.7.5,b42db3cbbed4e482298d0c5195f61e63e,0,0,0,0,0,0,0,0,0,0,0,1,1920,1080,0,0,0,0,0,0,0,0,0,0,0,0
77,0006,-0.967842,-0.1205883,-0.2002166,0.09302615,-0.7634344,1.144469,-2.103116,1773713822,1773713777,14.5503733333333,121.028731666667,2.1,0,2.1,1459.607,1458.875,1920,1080,974.0461,533.5496,0,1,222.0453,66,31,0.08647333,0.09667969,-1.010742,-0.3447266,0,0,0,0.5872265,36.05501,1,0.4885097,27.65307,1.016086,0.4734961,0,0.9926479,1,0.9972566,946.9922,0,0,0,0,v1.7.5,b42db3cbbed4e482298d0c5195f61e63e,0,0,0,0,0,0,0,0,0,0,0,1,1920,1080,0,0,0,0,0,0,0,0,0,0,0,0
77,0007,-0.9603555,-0.1363721,-0.2204853,0.1025,-0.8888445,1.152434,-2.061043,1773713823,1773713777,14.5503733333333,121.028731666667,2.1,0,2.1,1459.607,1458.875,1920,1080,974.0461,533.5496,0,1,237.7238,66,31,0.08647333,0.1052246,-1.001221,-0.1931152,0,0,0,0.5088032,20.17722,1,0.517487,30.96631,1.05918,0.4935777,0,0.9901742,1,0.9990969,987.1553,0,0,0,0,v1.7.5,b42db3cbbed4e482298d0c5195f61e63e,0,0,0,0,0,0,0,0,0,0,0,1,1920,1080,0,0,0,0,0,0,0,0,0,0,0,0
77,0008,-0.9647331,-0.1434419,-0.2014341,0.09021599,-1.023015,1.139755,-1.988366,1773713823,1773713777,14.5503733333333,121.028731666667,2.1,0,2.1,1459.607,1458.875,1920,1080,974.0461,533.5496,0,1,201.2505,66,31,0.08647333,0.01269531,-0.946289,-0.340332,0,0,0,0.6057239,11.35883,1,0.5657287,27.5488,1.019744,0.4752008,0,0.984695,1,1.012069,950.4017,0,0,0,0,v1.7.5,b42db3cbbed4e482298d0c5195f61e63e,0,0,0,0,0,0,0,0,0,0,0,1,1920,1080,0,0,0,0,0,0,0,0,0,0,0,0
77,0009,-0.9629143,-0.1308966,-0.1997977,0.1254716,-1.161923,1.153419,-1.848003,1773713823,1773713777,14.5503733333333,121.028731666667,2.1,0,2.1,1459.607,1458.875,1920,1080,974.0461,533.5496,0,1,223.1921,66,33,0.08647333,0.1120605,-0.8496093,-0.3095703,0,0,0,0.5597848,16.4056,1,0.694319,27.70464,1.009393,0.4703769,0,0.9834878,1,1.013687,940.7539,0,0,0,0,v1.7.5,b42db3cbbed4e482298d0c5195f61e63e,0,0,0,0,0,0,0,0,0,0,0,1,1920,1080,0,0,0,0,0,0,0,0,0,0,0,0
77,0010,-0.9600511,-0.1368362,-0.2223603,0.1006664,-1.274271,1.151808,-1.759851,1773713823,1773713777,14.5503733333333,121.028731666667,2.1,0,2.1,1459.607,1458.875,1920,1080,974.0461,533.5496,0,1,224.5523,66,33,0.08647333,0.1201172,-0.9616699,-0.3161621,0,0,0,0.6958314,20.26125,1,0.7282889,22.95614,1.01501,0.4729947,0,0.9887987,1,1.006088,945.9895,0,0,0,0,v1.7.5,b42db3cbbed4e482298d0c5195f61e63e,0,0,0,0,0,0,0,0,0,0,0,1,1920,1080,0,0,0,0,0,0,0,0,0,0,0,0
77,0011,-0.9340048,-0.12984,-0.312519,0.1144925,-1.435201,1.138214,-1.663622,1773713824,1773713777,14.5503733333333,121.028731666667,2.1,0,2.1,1459.607,1458.875,1920,1080,974.0461,533.5496,0,1,220.8352,66,33,0.08647333,0.1162109,-0.8408203,-0.395752,0,0,0,0.7070885,32.7401,1,0.7958861,30.62172,1.080957,0.503726,0,0.9933996,1,1.006551,1007.452,0,0,0,0,v1.7.5,b42db3cbbed4e482298d0c5195f61e63e,0,0,0,0,0,0,0,0,0,0,0,1,1920,1080,0,0,0,0,0,0,0,0,0,0,0,0
77,0012,-0.9149953,-0.1189316,-0.366227,0.1204855,-1.565332,1.155021,-1.583529,1773713824,1773713777,14.5503733333333,121.028731666667,2.1,0,2.1,1459.607,1458.875,1920,1080,974.0461,533.5496,0,1,249.9055,66,33,0.08647333,0.1469727,-0.9924316,-0.2150879,0,0,0,0.4938787,19.15717,1,0.7622012,33.16981,1.054116,0.4912183,0,0.9822347,1,1.026957,982.4366,0,0,0,0,v1.7.5,b42db3cbbed4e482298d0c5195f61e63e,0,0,0,0,0,0,0,0,0,0,0,1,1920,1080,0,0,0,0,0,0,0,0,0,0,0,0
77,0013,-0.9124475,-0.1186109,-0.3763636,0.1082666,-1.699284,1.140813,-1.447449,1773713824,1773713777,14.5503733333333,121.028731666667,2.1,0,2.1,1459.607,1458.875,1920,1080,974.0461,533.5496,0,1,253.3628,66,32,0.08647333,0.1428223,-1.124512,-0.204834,0,0,0,0.6669147,8.31034,1,0.6608481,26.96528,1.053456,0.4909107,0,0.9825944,1,1.024306,981.8214,0,0,0,0,v1.7.5,b42db3cbbed4e482298d0c5195f61e63e,0,0,0,0,0,0,0,0,0,0,0,1,1920,1080,0,0,0,0,0,0,0,0,0,0,0,0
77,0014,-0.9178244,-0.1130407,-0.3638726,0.1114314,-1.783442,1.148929,-1.319792,1773713824,1773713777,14.5503733333333,121.028731666667,2.1,0,2.1,1459.607,1458.875,1920,1080,974.0461,533.5496,0,1,226.8694,66,32,0.08647333,0.04980469,-0.885498,-0.2189941,0,0,0,0.7116819,16.47109,1,0.6801866,26.6646,1.05299,0.4906933,0,0.985741,1,1.020424,981.3865,0,0,0,0,v1.7.5,b42db3cbbed4e482298d0c5195f61e63e,0,0,0,0,0,0,0,0,0,0,0,1,1920,1080,0,0,0,0,0,0,0,0,0,0,0,0
77,0015,-0.9058804,-0.1014853,-0.3932773,0.1200605,-1.87481,1.15568,-1.191264,1773713825,1773713777,14.5503733333333,121.028731666667,2.1,0,2.1,1459.607,1458.875,1920,1080,974.0461,533.5496,0,1,228.7199,66,32,0.08647333,0.0793457,-1.032227,-0.3896484,0,0,0,1.11835,40.87617,1,0.6657553,20.35896,1.059029,0.4935077,0,0.9892802,1,1.019104,987.0154,0,0,0,0,v1.7.5,b42db3cbbed4e482298d0c5195f61e63e,0,0,0,0,0,0,0,0,0,0,0,1,1920,1080,0,0,0,0,0,0,0,0,0,0,0,0
77,0016,-0.8839136,-0.1015807,-0.4398448,0.1221256,-1.974498,1.132291,-1.074323,1773713825,1773713777,14.5503733333333,121.028731666667,2.1,0,2.1,1459.607,1458.875,1920,1080,974.0461,533.5496,0,1,205.1124,66,32,0.08647333,-0.05395508,-0.9189453,-0.3405762,0,0,0,0.6486458,40.8793,1,0.6909913,20.24232,1.114513,0.5193629,0,0.9830671,1,1.033571,1038.726,0,0,0,0,v1.7.5,b42db3cbbed4e482298d0c5195f61e63e,0,0,0,0,0,0,0,0,0,0,0,1,1920,1080,0,0,0,0,0,0,0,0,0,0,0,0
77,0017,-0.8470012,-0.09248201,-0.5034652,0.1433842,-2.087558,1.150824,-0.9675732,1773713825,1773713777,14.5503733333333,121.028731666667,2.1,0,2.1,1459.607,1458.875,1920,1080,974.0461,533.5496,0,1,260.0699,66,33,0.08647333,0.1733398,-0.9133301,-0.1882324,0,0,0,0.4800169,28.11598,1,0.73447,29.95335,1.04243,0.4857723,0,0.983539,1,1.03434,971.5447,0,0,0,0,v1.7.5,b42db3cbbed4e482298d0c5195f61e63e,0,0,0,0,0,0,0,0,0,0,0,1,1920,1080,0,0,0,0,0,0,0,0,0,0,0,0
77,0018,-0.834814,-0.09795555,-0.5241902,0.1368032,-2.171155,1.146192,-0.8354731,1773713825,1773713777,14.5503733333333,121.028731666667,2.1,0,2.1,1459.607,1458.875,1920,1080,974.0461,533.5496,0,1,251.847,66,33,0.08647333,0.1982422,-1.074463,-0.2893066,0,0,0,0.6992579,12.64951,1,0.7157323,29.83443,1.030188,0.4800677,0,0.9775637,1,1.034895,960.1353,0,0,0,0,v1.7.5,b42db3cbbed4e482298d0c5195f61e63e,0,0,0,0,0,0,0,0,0,0,0,1,1920,1080,0,0,0,0,0,0,0,0,0,0,0,0
77,0019,-0.8488001,-0.08131354,-0.5043471,0.1362371,-2.248539,1.146941,-0.6580925,1773713826,1773713777,14.5503733333333,121.028731666667,2.1,0,2.1,1459.607,1458.875,1920,1080,974.0461,533.5496,0,1,249.3538,66,33,0.08647333,0.2075195,-0.8444824,-0.3469238,0,0,0,0.7707279,11.38486,1,0.7566431,30.3125,1.005379,0.4685068,0,0.9723486,1,1.034689,937.0136,0,0,0,0,v1.7.5,b42db3cbbed4e482298d0c5195f61e63e,0,0,0,0,0,0,0,0,0,0,0,1,1920,1080,0,0,0,0,0,0,0,0,0,0,0,0
77,0020,-0.8453712,-0.08198085,-0.5088977,0.1401782,-2.297669,1.17354,-0.5157337,1773713826,1773713777,14.5503733333333,121.028731666667,2.1,0,2.1,1459.607,1458.875,1920,1080,974.0461,533.5496,0,1,257.2401,66,33,0.08647333,0.1945801,-0.9787597,-0.2741699,0,0,0,0.7388535,13.6087,1,0.7422511,25.45557,1.006631,0.46909,0,0.9710703,1,1.034801,938.1801,0,0,0,0,v1.7.5,b42db3cbbed4e482298d0c5195f61e63e,0,0,0,0,0,0,0,0,0,0,0,1,1920,1080,0,0,0,0,0,0,0,0,0,0,0,0
77,0021,-0.8287947,-0.08455138,-0.5369478,0.1328065,-2.368955,1.157159,-0.3911152,1773713826,1773713777,14.5503733333333,121.028731666667,2.1,0,2.1,1459.607,1458.875,1920,1080,974.0461,533.5496,0,1,263.9304,66,33,0.08647333,0.229248,-1.070557,-0.2680664,0,0,0,0.584601,29.10507,1,0.6710832,15.96148,1.025169,0.4777286,0,0.9731974,1,1.035675,955.4573,0,0,0,0,v1.7.5,b42db3cbbed4e482298d0c5195f61e63e,0,0,0,0,0,0,0,0,0,0,0,1,1920,1080,0,0,0,0,0,0,0,0,0,0,0,0
77,0022,-0.7906375,-0.06255645,-0.5880375,0.1587171,-2.466154,1.161411,-0.26297,1773713826,1773713777,14.5503733333333,121.028731666667,2.1,0,2.1,1459.607,1458.875,1920,1080,974.0461,533.5496,0,1,273.9346,66,32,0.08647333,0.1860352,-1.049561,-0.1914063,0,0,0,0.7989153,53.18724,1,0.7046435,20.25994,1.028343,0.479208,0,0.9803944,1,1.032728,958.416,0,0,0,0,v1.7.5,b42db3cbbed4e482298d0c5195f61e63e,0,0,0,0,0,0,0,0,0,0,0,1,1920,1080,0,0,0,0,0,0,0,0,0,0,0,0
77,0023,-0.7494535,-0.05755181,-0.6401663,0.1587273,-2.541594,1.180541,-0.1173677,1773713827,1773713777,14.5503733333333,121.028731666667,2.1,0,2.1,1459.607,1458.875,1920,1080,974.0461,533.5496,0,1,269.0997,66,32,0.08647333,0.1306152,-0.9938964,-0.204834,0,0,0,1.743391,75.43068,1,0.690612,24.40847,1.069862,0.4985559,0,0.9790989,1,1.029981,997.1119,0,0,0,0,v1.7.5,b42db3cbbed4e482298d0c5195f61e63e,0,0,0,0,0,0,0,0,0,0,0,1,1920,1080,0,0,0,0,0,0,0,0,0,0,0,0
77,0024,-0.7399697,-0.063715,-0.6523264,0.1511805,-2.58558,1.167271,0.02917671,1773713827,1773713777,14.5503733333333,121.028731666667,2.1,0,2.1,1459.607,1458.875,1920,1080,974.0461,533.5496,0,1,282.8258,66,32,0.08647333,0.2241211,-1.177002,-0.2841797,0,0,0,0.7993867,10.05386,1,0.7091882,25.22684,1.049224,0.4889385,0,0.9792981,1,1.025534,977.877,0,0,0,0,v1.7.5,b42db3cbbed4e482298d0c5195f61e63e,0,0,0,0,0,0,0,0,0,0,0,1,1920,1080,0,0,0,0,0,0,0,0,0,0,0,0
77,0025,-0.7242543,-0.04850876,-0.6698916,0.1560382,-2.609397,1.177131,0.2418013,1773713827,1773713777,14.5503733333333,121.028731666667,2.1,0,2.1,1459.607,1458.875,1920,1080,974.0461,533.5496,0,1,262.3695,66,32,0.08647333,0.1269531,-0.8378906,-0.2954102,0,0,0,0.9048065,26.80043,1,0.7981614,26.69491,1.04339,0.4862195,0,0.9771292,1,1.022739,972.439,0,0,0,0,v1.7.5,b42db3cbbed4e482298d0c5195f61e63e,0,0,0,0,0,0,0,0,0,0,0,1,1920,1080,0,0,0,0,0,0,0,0,0,0,0,0
77,0026,-0.6926754,-0.02941001,-0.7057524,0.1457718,-2.621842,1.182812,0.4173298,1773713827,1773713827,14.5503483333333,121.028728333333,2.1,0,2.1,1459.607,1458.875,1920,1080,974.0461,533.5496,0,1,288.4856,66,33,0.2372869,0.2211914,-1.101074,-0.2124023,0,0,0,1.062999,44.94228,1,0.8135596,23.24443,1.044427,0.486703,0,0.9816181,1,1.013921,973.4061,0,0,0,0,v1.7.5,b42db3cbbed4e482298d0c5195f61e63e,0,0,0,0,0,0,0,0,0,0,0,1,1920,1080,0,0,0,0,0,0,0,0,0,0,0,0
77,0027,-0.6319433,-0.01789187,-0.7562944,0.1683639,-2.64185,1.176028,0.5683508,1773713828,1773713827,14.5503483333333,121.028728333333,2.1,0,2.1,1459.607,1458.875,1920,1080,974.0461,533.5496,0,1,288.1956,66,33,0.2372869,0.1262207,-0.9760742,-0.184082,0,0,0,0.5620548,42.02122,1,0.755574,25.33112,1.06648,0.4969797,0,0.9880515,1,1.015505,993.9593,0,0,0,0,v1.7.5,b42db3cbbed4e482298d0c5195f61e63e,0,0,0,0,0,0,0,0,0,0,0,1,1920,1080,0,0,0,0,0,0,0,0,0,0,0,0
77,0028,-0.5820968,-0.02985204,-0.7947995,0.1690155,-2.631203,1.192862,0.6956329,1773713828,1773713827,14.5503483333333,121.028728333333,2.1,0,2.1,1459.607,1458.875,1920,1080,974.0461,533.5496,0,1,302.8207,66,33,0.2372869,0.2307129,-0.9284668,-0.2392578,0,0,0,0.3658509,26.4516,1,0.7529507,32.07581,1.070707,0.4989496,0,0.9888656,1,1.013572,997.8993,0,0,0,0,v1.7.5,b42db3cbbed4e482298d0c5195f61e63e,0,0,0,0,0,0,0,0,0,0,0,1,1920,1080,0,0,0,0,0,0,0,0,0,0,0,0
77,0029,-0.5612869,-0.03104418,-0.8117234,0.1584249,-2.622651,1.175544,0.8814297,1773713828,1773713827,14.5503483333333,121.028728333333,2.1,0,2.1,1459.607,1458.875,1920,1080,974.0461,533.5496,0,1,292.4634,66,33,0.2372869,0.1599121,-1.162354,-0.2145996,0,0,0,1.277265,6.615504,1,0.7484857,31.2645,1.006849,0.4691917,0,0.9925265,1,1.00984,938.3834,0,0,0,0,v1.7.5,b42db3cbbed4e482298d0c5195f61e63e,0,0,0,0,0,0,0,0,0,0,0,1,1920,1080,0,0,0,0,0,0,0,0,0,0,0,0
77,0030,-0.5804254,-0.04196274,-0.7997951,0.1472188,-2.545706,1.178544,1.031594,1773713828,1773713827,14.5503483333333,121.028728333333,2.1,0,2.1,1459.607,1458.875,1920,1080,974.0461,533.5496,0,1,260.4714,66,33,0.2372869,0.02929687,-0.9035645,-0.2038574,0,0,0,0.7426826,15.79264,1,0.7716374,30.53148,0.9997485,0.4658828,0,0.9921153,1,1.007112,931.7656,0,0,0,0,v1.7.5,b42db3cbbed4e482298d0c5195f61e63e,0,0,0,0,0,0,0,0,0,0,0,1,1920,1080,0,0,0,0,0,0,0,0,0,0,0,0
77,0031,-0.5634522,-0.03505185,-0.8133204,0.1407236,-2.487212,1.195129,1.169905,1773713829,1773713827,14.5503483333333,121.028728333333,2.1,0,2.1,1459.607,1458.875,1920,1080,974.0461,533.5496,0,1,271.3134,66,33,0.2372869,0.08886719,-0.9807128,-0.3242188,0,0,0,1.607301,45.30149,1,0.7986702,26.37268,1.015497,0.4732215,0,0.994866,1,1.004676,946.4429,0,0,0,0,v1.7.5,b42db3cbbed4e482298d0c5195f61e63e,0,0,0,0,0,0,0,0,0,0,0,1,1920,1080,0,0,0,0,0,0,0,0,0,0,0,0
77,0032,-0.512885,-0.02127817,-0.8451898,0.1488307,-2.428128,1.181922,1.332579,1773713829,1773713827,14.5503483333333,121.028728333333,2.1,0,2.1,1459.607,1458.875,1920,1080,974.0461,533.5496,0,1,239.5686,66,33,0.2372869,-0.09936523,-0.9221191,-0.2978516,0,0,0,1.03136,29.54774,1,0.786207,22.28944,0.9882678,0.4605328,0,0.9928629,1,1.002663,921.0656,0,0,0,0,v1.7.5,b42db3cbbed4e482298d0c5195f61e63e,0,0,0,0,0,0,0,0,0,0,0,1,1920,1080,0,0,0,0,0,0,0,0,0,0,0,0
77,0033,-0.4681579,-0.005042886,-0.8703379,0.1526918,-2.397219,1.198531,1.476806,1773713829,1773713827,14.5503483333333,121.028728333333,2.1,0,2.1,1459.607,1458.875,1920,1080,974.0461,533.5496,0,1,293.4612,66,33,0.2372869,0.1525879,-0.9658203,-0.2526855,0,0,0,0.4623954,24.53547,1,0.7917927,24.62245,0.9629692,0.4487436,0,0.9939187,1,1.009703,897.4873,0,0,0,0,v1.7.5,b42db3cbbed4e482298d0c5195f61e63e,0,0,0,0,0,0,0,0,0,0,0,1,1920,1080,0,0,0,0,0,0,0,0,0,0,0,0
77,0034,-0.448126,-0.005517434,-0.8816661,0.1477086,-2.28478,1.189327,1.628893,1773713829,1773713829,14.5503416666667,121.028748333333,2.1,0,2.1,1459.607,1458.875,1920,1080,974.0461,533.5496,0,1,308.2053,66,33,0.3072892,0.1391602,-1.209473,-0.1530762,0,0,0,0.5853997,12.19581,1,0.8078588,25.44168,0.9155146,0.4266298,0,0.991016,1,1.009055,853.2596,0,0,0,0,v1.7.5,b42db3cbbed4e482298d0c5195f61e63e,0,0,0,0,0,0,0,0,0,0,0,1,1920,1080,0,0,0,0,0,0,0,0,0,0,0,0
77,0035,-0.4600134,-0.009799726,-0.8779505,0.1322669,-2.143712,1.193707,1.701955,1773713830,1773713829,14.5503416666667,121.028748333333,2.1,0,2.1,1459.607,1458.875,1920,1080,974.0461,533.5496,0,1,300.9195,66,33,0.3072892,0.1435547,-0.9353027,-0.1894531,0,0,0,0.9866837,28.44909,1,0.8415309,26.65319,0.9328278,0.4346977,0,0.9908255,1,1.006469,869.3955,0,0,0,0,v1.7.5,b42db3cbbed4e482298d0c5195f61e63e,0,0,0,0,0,0,0,0,0,0,0,1,1920,1080,0,0,0,0,0,0,0,0,0,0,0,0
77,0036,-0.4440399,-0.00902738,-0.8858342,0.1343316,-2.013646,1.208731,1.787074,1773713830,1773713829,14.5503416666667,121.028748333333,2.1,0,2.1,1459.607,1458.875,1920,1080,974.0461,533.5496,0,1,294.6786,66,33,0.3072892,0.1379395,-1.029297,-0.2297363,0,0,0,0.6255221,9.756186,1,0.8356667,22.15925,0.9461569,0.4409091,0,0.9948869,1,1.011397,881.8182,0,0,0,0,v1.7.5,b42db3cbbed4e482298d0c5195f61e63e,0,0,0,0,0,0,0,0,0,0,0,1,1920,1080,0,0,0,0,0,0,0,0,0,0,0,0
77,0037,-0.410336,-0.0061223,-0.9020286,0.1339086,-1.877185,1.193791,1.90745,1773713830,1773713829,14.5503416666667,121.028748333333,2.1,0,2.1,1459.607,1458.875,1920,1080,974.0461,533.5496,0,1,270.1432,66,33,0.3072892,0.0144043,-1.040771,-0.175293,0,0,0,0.6917866,20.59257,1,0.8135809,19.20751,0.9589053,0.4468499,0,0.9914743,1,1.012311,893.6997,0,0,0,0,v1.7.5,b42db3cbbed4e482298d0c5195f61e63e,0,0,0,0,0,0,0,0,0,0,0,1,1920,1080,0,0,0,0,0,0,0,0,0,0,0,0
77,0038,-0.3740827,0.007104095,-0.9157996,0.1460236,-1.773004,1.207872,2.011431,1773713830,1773713829,14.5503416666667,121.028748333333,2.1,0,2.1,1459.607,1458.875,1920,1080,974.0461,533.5496,0,1,279.8962,66,33,0.3072892,0.04248047,-0.8637695,-0.2658691,0,0,0,0.5299438,18.70381,1,0.8222748,21.74916,0.9502202,0.4428026,0,0.9878834,1,1.023322,885.6052,0,0,0,0,v1.7.5,b42db3cbbed4e482298d0c5195f61e63e,0,0,0,0,0,0,0,0,0,0,0,1,1920,1080,0,0,0,0,0,0,0,0,0,0,0,0
77,0039,-0.3444346,-0.001313431,-0.9273331,0.1463439,-1.657591,1.21516,2.1,1773713831,1773713829,14.5503416666667,121.028748333333,2.1,0,2.1,1459.607,1458.875,1920,1080,974.0461,533.5496,0,1,279.6441,66,33,0.3072892,0.04174805,-0.9736328,-0.2700195,0,0,0,1.007334,14.614,1,0.7630721,22.18015,0.9528023,0.4440059,0,0.9825244,1,1.033833,888.0118,0,0,0,0,v1.7.5,b42db3cbbed4e482298d0c5195f61e63e,0,0,0,0,0,0,0,0,0,0,0,1,1920,1080,0,0,0,0,0,0,0,0,0,0,0,0
77,0040,-0.3485193,0.00404897,-0.9273568,0.1361154,-1.458894,1.195858,2.195801,1773713831,1773713829,14.5503416666667,121.028748333333,2.1,0,2.1,1459.607,1458.875,1920,1080,974.0461,533.5496,0,1,253.0794,66,33,0.3072892,-0.1169434,-0.935791,-0.435791,0,0,0,0.7670039,23.32571,1,0.7577611,23.29313,0.9805139,0.4569195,0,0.986652,1,1.023659,913.839,0,0,0,0,v1.7.5,b42db3cbbed4e482298d0c5195f61e63e,0,0,0,0,0,0,0,0,0,0,0,1,1920,1080,0,0,0,0,0,0,0,0,0,0,0,0
77,0041,-0.3369451,0.004698714,-0.9325362,0.1297,-1.32085,1.21293,2.246941,1773713831,1773713829,14.5503416666667,121.028748333333,2.1,0,2.1,1459.607,1458.875,1920,1080,974.0461,533.5496,0,1,267.2687,66,33,0.3072892,-0.02783203,-0.935791,-0.3149414,0,0,0,0.4321809,20.35518,1,0.7346551,22.56795,0.9393446,0.4377346,0,0.9818351,1,1.025683,875.4692,0,0,0,0,v1.7.5,b42db3cbbed4e482298d0c5195f61e63e,0,0,0,0,0,0,0,0,0,0,0,1,1920,1080,0,0,0,0,0,0,0,0,0,0,0,0
77,0042,-0.3088329,-0.02380313,-0.9419319,0.129692,-1.183458,1.202035,2.308945,1773713831,1773713831,14.5503383333333,121.02876,2.1,0,2.1,1459.607,1458.875,1920,1080,974.0461,533.5496,0,1,292.1835,66,32,0,0.06201172,-1.123047,-0.2336426,0,0,0,0.6690939,20.95388,1,0.7054123,21.27477,0.953194,0.4441884,0,0.9784356,1,1.032706,888.3768,0,0,0,0,v1.7.5,b42db3cbbed4e482298d0c5195f61e63e,0,0,0,0,0,0,0,0,0,0,0,1,1920,1080,0,0,0,0,0,0,0,0,0,0,0,0
77,0043,-0.2485653,-0.002714828,-0.9577807,0.1444446,-1.056758,1.206697,2.387215,1773713832,1773713831,14.5503383333333,121.02876,2.1,0,2.1,1459.607,1458.875,1920,1080,974.0461,533.5496,0,1,283.1299,66,32,0,0.03027344,-0.9035645,-0.3447266,0,0,0,0.5012239,23.39561,1,0.6594881,23.18913,0.9681545,0.45116,0,0.9785385,1,1.036718,902.32,0,0,0,0,v1.7.5,b42db3cbbed4e482298d0c5195f61e63e,0,0,0,0,0,0,0,0,0,0,0,1,1920,1080,0,0,0,0,0,0,0,0,0,0,0,0
77,0044,-0.2086517,-0.003210394,-0.9661931,0.1514103,-0.9216166,1.209183,2.437258,1773713832,1773713831,14.5503383333333,121.02876,2.1,0,2.1,1459.607,1458.875,1920,1080,974.0461,533.5496,0,1,287.1929,66,32,0,0.1279297,-1.046875,-0.315918,0,0,0,0.532456,5.458331,1,0.5318944,22.27728,0.9941979,0.4632962,0,0.9778779,1,1.034174,926.5924,0,0,0,0,v1.7.5,b42db3cbbed4e482298d0c5195f61e63e,0,0,0,0,0,0,0,0,0,0,0,1,1920,1080,0,0,0,0,0,0,0,0,0,0,0,0
77,0045,-0.2164014,0.009282137,-0.9675077,0.1304346,-0.7803774,1.207705,2.463005,1773713832,1773713831,14.5503383333333,121.02876,2.1,0,2.1,1459.607,1458.875,1920,1080,974.0461,533.5496,0,1,290.1107,66,32,0,0.0378418,-0.9174805,-0.2485352,0,0,0,1.039474,27.20488,1,0.5520509,21.79289,1.005766,0.468687,0,0.987682,1,1.018275,937.374,0,0,0,0,v1.7.5,b42db3cbbed4e482298d0c5195f61e63e,0,0,0,0,0,0,0,0,0,0,0,1,1920,1080,0,0,0,0,0,0,0,0,0,0,0,0
77,0046,-0.2085425,0.003050547,-0.9688348,0.1336413,-0.6078844,1.220786,2.492573,1773713833,1773713832,14.5503466666667,121.028771666667,2.1,0,2.1,1459.607,1458.875,1920,1080,974.0461,533.5496,0,1,287.1817,66,32,0,0.02075195,-1.018555,-0.2619629,0,0,0,0.4061544,13.22065,1,0.6428922,19.61667,0.9318458,0.4342401,0,0.9817888,1,1.034253,868.4803,0,0,0,0,v1.7.5,b42db3cbbed4e482298d0c5195f61e63e,0,0,0,0,0,0,0,0,0,0,0,1,1920,1080,0,0,0,0,0,0,0,0,0,0,0,0
77,0047,-0.1732559,0.008013839,-0.974659,0.1412738,-0.4788322,1.209557,2.533951,1773713833,1773713832,14.5503466666667,121.028771666667,2.1,0,2.1,1459.607,1458.875,1920,1080,974.0461,533.5496,0,1,318.5988,66,32,0,0.105957,-0.9909667,-0.1833496,0,0,0,0.364492,17.70651,1,0.6654586,17.21952,0.928551,0.4327048,0,0.9830126,1,1.032215,865.4095,0,0,0,0,v1.7.5,b42db3cbbed4e482298d0c5195f61e63e,0,0,0,0,0,0,0,0,0,0,0,1,1920,1080,0,0,0,0,0,0,0,0,0,0,0,0
77,0048,-0.1435548,0.004240237,-0.9803828,0.1349956,-0.2905436,1.207087,2.582809,1773713833,1773713832,14.5503466666667,121.028771666667,2.1,0,2.1,1459.607,1458.875,1920,1080,974.0461,533.5496,0,1,268.9363,66,32,0,-0.1162109,-1.006104,-0.2683105,0,0,0,1.155816,30.91855,1,0.6459635,17.15006,1.022855,0.4766504,0,0.9847453,1,1.022546,953.3007,0,0,0,0,v1.7.5,b42db3cbbed4e482298d0c5195f61e63e,0,0,0,0,0,0,0,0,0,0,0,1,1920,1080,0,0,0,0,0,0,0,0,0,0,0,0
77,0049,-0.1751329,0.02116795,-0.9783325,0.1083786,-0.1653004,1.204943,2.563986,1773713834,1773713832,14.5503466666667,121.028771666667,2.1,0,2.1,1459.607,1458.875,1920,1080,974.0461,533.5496,0,1,301.7912,66,32,0,-0.004638672,-1.00293,-0.1623535,0,0,0,0.6789519,27.1758,1,0.5676278,21.17245,0.9751087,0.4544007,0,0.9776177,1,1.024035,908.8013,0,0,0,0,v1.7.5,b42db3cbbed4e482298d0c5195f61e63e,0,0,0,0,0,0,0,0,0,0,0,1,1920,1080,0,0,0,0,0,0,0,0,0,0,0,0
77,0050,-0.1764407,0.02664949,-0.9774635,0.1127993,-0.01597977,1.20227,2.583162,1773713834,1773713832,14.5503466666667,121.028771666667,2.1,0,2.1,1459.607,1458.875,1920,1080,974.0461,533.5496,0,1,322.9546,66,32,0,0.1347656,-1.054443,-0.2763672,0,0,0,0.3278072,8.747988,1,0.5444383,19.36934,0.9393066,0.4377169,0,0.9950177,1,1.02889,875.4337,0,0,0,0,v1.7.5,b42db3cbbed4e482298d0c5195f61e63e,0,0,0,0,0,0,0,0,0,0,0,1,1920,1080,0,0,0,0,0,0,0,0,0,0,0,0
77,0051,-0.09043753,0.0478036,-0.9847879,0.1404588,0.233758,1.211837,2.721832,1773713834,1773713832,14.5503466666667,121.028771666667,2.1,0,2.1,1459.607,1458.875,1920,1080,974.0461,533.5496,0,1,323.0822,66,32,0,0.04272461,-0.988037,-0.2023926,0,0,0,0.6692589,22.94294,1,0.7484644,30.33726,0.8915496,0.4154621,0,0.9830833,1,1.029122,830.9242,0,0,0,0,v1.7.5,b42db3cbbed4e482298d0c5195f61e63e,0,0,0,0,0,0,0,0,0,0,0,1,1920,1080,0,0,0,0,0,0,0,0,0,0,0,0
77,0052,-0.07174598,0.04503165,-0.9875271,0.1327211,0.3650389,1.21604,2.796658,1773713835,1773713832,14.5503466666667,121.028771666667,2.1,0,2.1,1459.607,1458.875,1920,1080,974.0461,533.5496,0,1,336.7987,66,33,0,0.1062012,-0.9738769,-0.182373,0,0,0,0.2569847,3.034506,1,0.7058632,25.18379,1.00274,0.4672767,0,0.9718159,1,1.022726,934.5533,0,0,0,0,v1.7.5,b42db3cbbed4e482298d0c5195f61e63e,0,0,0,0,0,0,0,0,0,0,0,1,1920,1080,0,0,0,0,0,0,0,0,0,0,0,0
77,0053,-0.1067365,0.04899571,-0.9863253,0.1156257,0.6645174,1.195864,2.827328,1773713835,1773713832,14.5503466666667,121.028771666667,2.1,0,2.1,1459.607,1458.875,1920,1080,974.0461,533.5496,0,1,285.0208,66,33,0,-0.154541,-1.018555,-0.2426758,0,0,0,0.7766575,23.33144,1,0.9763416,27.72962,0.9634266,0.4489568,0,0.9823308,1,1.011563,897.9136,0,0,0,0,v1.7.5,b42db3cbbed4e482298d0c5195f61e63e,0,0,0,0,0,0,0,0,0,0,0,1,1920,1080,0,0,0,0,0,0,0,0,0,0,0,0
77,0054,-0.1124217,0.04606811,-0.9854578,0.1187938,0.8630075,1.212773,2.839632,1773713835,1773713832,14.5503466666667,121.028771666667,2.1,0,2.1,1459.607,1458.875,1920,1080,974.0461,533.5496,0,1,312.0241,66,33,0,-0.03515625,-0.9433593,-0.2287598,0,0,0,1.349877,38.27803,1,1.046304,27.82414,0.9117294,0.4248659,0,0.9861022,1,1.021865,849.7318,0,0,0,0,v1.7.5,b42db3cbbed4e482298d0c5195f61e63e,0,0,0,0,0,0,0,0,0,0,0,1,1920,1080,0,0,0,0,0,0,0,0,0,0,0,0
77,0055,-0.08241265,0.02848199,-0.9905571,0.1058004,0.9964352,1.209107,2.835461,1773713836,1773713832,14.5503466666667,121.028771666667,2.1,0,2.1,1459.607,1458.875,1920,1080,974.0461,533.5496,0,1,354.1635,66,33,0,0.1079102,-0.9985352,-0.1633301,0,0,0,0.3931049,20.23936,1,0.8498443,20.16171,0.9257171,0.4313841,0,0.9915653,1,1.016911,862.7683,0,0,0,0,v1.7.5,b42db3cbbed4e482298d0c5195f61e63e,0,0,0,0,0,0,0,0,0,0,0,1,1920,1080,0,0,0,0,0,0,0,0,0,0,0,0
77,0056,0.05393828,0.05931664,-0.9921098,0.09638723,1.143751,1.203111,2.808401,1773713836,1773713832,14.5503466666667,121.028771666667,2.1,0,2.1,1459.607,1458.875,1920,1080,974.0461,533.5496,0,1,10.72017,66,33,0,-0.001220703,-1.034912,-0.2006836,0,0,0,0.4754748,51.15647,1,0.8835791,34.86416,0.9509051,0.4431218,0,0.9819447,1,1.02449,886.2435,0,0,0,0,v1.7.5,b42db3cbbed4e482298d0c5195f61e63e,0,0,0,0,0,0,0,0,0,0,0,1,1920,1080,0,0,0,0,0,0,0,0,0,0,0,0
77,0057,-0.1521267,-0.07452301,0.9798481,-0.1058373,1.265065,1.212594,2.725327,1773713836,1773713832,14.5503466666667,121.028771666667,2.1,0,2.1,1459.607,1458.875,1920,1080,974.0461,533.5496,0,1,73.54253,66,33,0,0.07202148,-1.032959,-0.1843262,0,0,0,0.8408889,52.98066,1,0.7513161,45.46483,0.9205042,0.428955,0,0.9560777,1,1.040942,857.9099,0,0,0,0,v1.7.5,b42db3cbbed4e482298d0c5195f61e63e,0,0,0,0,0,0,0,0,0,0,0,1,1920,1080,0,0,0,0,0,0,0,0,0,0,0,0
77,0058,-0.2138128,-0.0772167,0.9678416,-0.1077235,1.378632,1.214319,2.711956,1773713836,1773713832,14.5503466666667,121.028771666667,2.1,0,2.1,1459.607,1458.875,1920,1080,974.0461,533.5496,0,1,127.1556,66,33,0,0.2126465,-0.9816894,-0.1162109,0,0,0,0.5058183,25.77994,1,0.6602297,48.48112,0.9082168,0.423229,0,0.9603739,1,1.045649,846.4581,0,0,0,0,v1.7.5,b42db3cbbed4e482298d0c5195f61e63e,0,0,0,0,0,0,0,0,0,0,0,1,1920,1080,0,0,0,0,0,0,0,0,0,0,0,0
77,0059,-0.2360517,-0.08215417,0.9629176,-0.101588,1.524385,1.211067,2.646292,1773713836,1773713832,14.5503466666667,121.028771666667,2.1,0,2.1,1459.607,1458.875,1920,1080,974.0461,533.5496,0,1,100.5946,66,33,0,0.142334,-1.11084,-0.1816406,0,0,0,0.7203392,6.871525,1,0.7193618,47.53802,0.9049745,0.4217181,0,0.9580972,1,1.054637,843.4362,0,0,0,0,v1.7.5,b42db3cbbed4e482298d0c5195f61e63e,0,0,0,0,0,0,0,0,0,0,0,1,1920,1080,0,0,0,0,0,0,0,0,0,0,0,0
77,0060,-0.2359127,-0.08816296,0.9625276,-0.1005646,1.647764,1.211017,2.583166,1773713837,1773713832,14.5503466666667,121.028771666667,2.1,0,2.1,1459.607,1458.875,1920,1080,974.0461,533.5496,0,1,107.4289,66,33,0,0.09228516,-0.9519043,-0.1989746,0,0,0,0.2295299,13.31602,1,0.74723,40.26689,0.8855813,0.4126809,0,0.9451888,1,1.053339,825.3618,0,0,0,0,v1.7.5,b42db3cbbed4e482298d0c5195f61e63e,0,0,0,0,0,0,0,0,0,0,0,1,1920,1080,0,0,0,0,0,0,0,0,0,0,0,0
77,0061,-0.253657,-0.0852017,0.9587814,-0.09558824,1.757353,1.212891,2.492319,1773713837,1773713832,14.5503466666667,121.028771666667,2.1,0,2.1,1459.607,1458.875,1920,1080,974.0461,533.5496,0,1,108.0398,66,33,0,-0.03149414,-0.8913574,-0.3410645,0,0,0,0.2465102,16.45192,1,0.551843,9.173625,0.982518,0.4578533,0,0.9444031,1,1.046015,915.7067,0,0,0,0,v1.7.5,b42db3cbbed4e482298d0c5195f61e63e,0,0,0,0,0,0,0,0,0,0,0,1,1920,1080,0,0,0,0,0,0,0,0,0,0,0,0
77,0062,-0.3685608,-0.1040096,0.9188363,-0.09531474,2.112392,1.218249,2.458353,1773713838,1773713832,14.5503466666667,121.028771666667,2.1,0,2.1,1459.607,1458.875,1920,1080,974.0461,533.5496,0,1,153.0715,66,31,0,0.1767578,-0.9833984,-0.1474609,0,0,0,0.7505793,19.1547,1,0.5832865,20.43915,1.009543,0.4704472,0,0.9476316,1,1.045428,940.8943,0,0,0,0,v1.7.5,b42db3cbbed4e482298d0c5195f61e63e,0,0,0,0,0,0,0,0,0,0,0,1,1920,1080,0,0,0,0,0,0,0,0,0,0,0,0
77,0063,-0.3669939,-0.104082,0.9207058,-0.08236142,2.224049,1.21129,2.323385,1773713838,1773713832,14.5503466666667,121.028771666667,2.1,0,2.1,1459.607,1458.875,1920,1080,974.0461,533.5496,0,1,111.9809,66,31,0,-0.01416016,-0.9748535,-0.2868652,0,0,0,0.5220032,10.85775,1,1.0661,22.26522,0.9090062,0.4235969,0,0.9409045,1,1.050032,847.1937,0,0,0,0,v1.7.5,b42db3cbbed4e482298d0c5195f61e63e,0,0,0,0,0,0,0,0,0,0,0,1,1920,1080,0,0,0,0,0,0,0,0,0,0,0,0
77,0064,-0.3411174,-0.09720936,0.9309759,-0.08644691,2.323044,1.23166,2.193082,1773713838,1773713832,14.5503466666667,121.028771666667,2.1,0,2.1,1459.607,1458.875,1920,1080,974.0461,533.5496,0,1,129.2987,66,31,0,0.1000977,-0.9912109,-0.2321777,0,0,0,0.6128211,8.808557,1,1.036573,21.34606,0.8830799,0.4115152,0,0.9372577,1,1.050782,823.0304,0,0,0,0,v1.7.5,b42db3cbbed4e482298d0c5195f61e63e,0,0,0,0,0,0,0,0,0,0,0,1,1920,1080,0,0,0,0,0,0,0,0,0,0,0,0
77,0065,-0.364595,-0.0979853,0.9226138,-0.07907768,2.442552,1.222751,2.136171,1773713839,1773713832,14.5503466666667,121.028771666667,2.1,0,2.1,1459.607,1458.875,1920,1080,974.0461,533.5496,0,1,124.3547,66,31,0,0.02539063,-0.9665527,-0.2470703,0,0,0,0.1273677,14.25144,1,0.9029549,16.17236,0.9739292,0.453851,0,0.9421438,1,1.045778,907.702,0,0,0,0,v1.7.5,b42db3cbbed4e482298d0c5195f61e63e,0,0,0,0,0,0,0,0,0,0,0,1,1920,1080,0,0,0,0,0,0,0,0,0,0,0,0
77,0066,-0.4197125,-0.1081517,0.8968423,-0.08842339,2.616813,1.226626,2.06428,1773713839,1773713832,14.5503466666667,121.028771666667,2.1,0,2.1,1459.607,1458.875,1920,1080,974.0461,533.5496,0,1,147.3872,66,30,0,0.1425781,-0.8845214,-0.2019043,0,0,0,0.8142483,28.32982,1,0.6731867,18.77423,0.9559665,0.4454804,0,0.9411849,1,1.046669,890.9608,0,0,0,0,v1.7.5,b42db3cbbed4e482298d0c5195f61e63e,0,0,0,0,0,0,0,0,0,0,0,1,1920,1080,0,0,0,0,0,0,0,0,0,0,0,0
77,0067,-0.4309664,-0.1006981,0.8925765,-0.0862271,2.751338,1.229424,1.998839,1773713839,1773713832,14.5503466666667,121.028771666667,2.1,0,2.1,1459.607,1458.875,1920,1080,974.0461,533.5496,0,1,161.6599,66,30,0,0.1508789,-0.980957,-0.1269531,0,0,0,0.5022547,14.77074,1,0.6599753,19.69107,0.9582032,0.4465227,0,0.9412062,1,1.04652,893.0453,0,0,0,0,v1.7.5,b42db3cbbed4e482298d0c5195f61e63e,0,0,0,0,0,0,0,0,0,0,0,1,1920,1080,0,0,0,0,0,0,0,0,0,0,0,0
77,0068,-0.4113259,-0.1061624,0.9017599,-0.07980973,2.886467,1.210288,1.845936,1773713840,1773713832,14.5503466666667,121.028771666667,2.1,0,2.1,1459.607,1458.875,1920,1080,974.0461,533.5496,0,1,130.6683,66,30,0,0.04101563,-0.9047852,-0.2519531,0,0,0,0.6815377,10.42076,1,0.6714272,18.84084,0.9040475,0.4212861,0,0.9377279,1,1.04927,842.5723,0,0,0,0,v1.7.5,b42db3cbbed4e482298d0c5195f61e63e,0,0,0,0,0,0,0,0,0,0,0,1,1920,1080,0,0,0,0,0,0,0,0,0,0,0,0
77,0069,-0.4085782,-0.1017231,0.9039107,-0.07524522,2.947978,1.228519,1.727806,1773713840,1773713840,14.5504133333333,121.02885,2.1,0,2.1,1459.607,1458.875,1920,1080,974.0461,533.5496,0,1,157.4831,66,31,0.2882445,0.1352539,-0.9980469,-0.1733398,0,0,0,0.6136323,12.23388,1,0.6688868,17.57308,0.9076856,0.4229815,0,0.9380251,1,1.049093,845.963,0,0,0,0,v1.7.5,b42db3cbbed4e482298d0c5195f61e63e,0,0,0,0,0,0,0,0,0,0,0,1,1920,1080,0,0,0,0,0,0,0,0,0,0,0,0
77,0070,-0.4478639,-0.09766146,0.8863245,-0.06564468,3.034427,1.215107,1.587149,1773713840,1773713840,14.5504133333333,121.02885,2.1,0,2.1,1459.607,1458.875,1920,1080,974.0461,533.5496,0,1,180.9504,66,31,0.2882445,0.1696777,-1.087891,-0.145752,0,0,0,0.6374196,31.29364,1,0.6282777,14.78274,0.9843169,0.4586917,0,0.9427454,1,1.0453,917.3833,0,0,0,0,v1.7.5,b42db3cbbed4e482298d0c5195f61e63e,0,0,0,0,0,0,0,0,0,0,0,1,1920,1080,0,0,0,0,0,0,0,0,0,0,0,0
77,0071,-0.4924676,-0.1138418,0.8593849,-0.07728788,3.145144,1.224457,1.468689,1773713840,1773713840,14.5504133333333,121.02885,2.1,0,2.1,1459.607,1458.875,1920,1080,974.0461,533.5496,0,1,162.4774,66,31,0.2882445,0.04199219,-0.9335937,-0.2263184,0,0,0,0.5172532,21.24465,1,0.6466894,19.64393,0.9409451,0.4384804,0,0.9401392,1,1.047362,876.9609,0,0,0,0,v1.7.5,b42db3cbbed4e482298d0c5195f61e63e,0,0,0,0,0,0,0,0,0,0,0,1,1920,1080,0,0,0,0,0,0,0,0,0,0,0,0
77,0072,-0.5248271,-0.1123166,0.840568,-0.07339642,3.234614,1.225524,1.323692,1773713841,1773713840,14.5504133333333,121.02885,2.1,0,2.1,1459.607,1458.875,1920,1080,974.0461,533.5496,0,1,175.9058,66,31,0.2882445,0.1352539,-0.9853516,-0.1835938,0,0,0,0.5725579,5.462983,1,0.6274464,21.45537,0.9517251,0.4435039,0,0.9408089,1,1.046832,887.0078,0,0,0,0,v1.7.5,b42db3cbbed4e482298d0c5195f61e63e,0,0,0,0,0,0,0,0,0,0,0,1,1920,1080,0,0,0,0,0,0,0,0,0,0,0,0
77,0073,-0.507879,-0.1170592,0.8512947,-0.0604444,3.299482,1.2133,1.172269,1773713841,1773713841,14.550425,121.02886,2.1,0,2.1,1459.607,1458.875,1920,1080,974.0461,533.5496,0,1,132.7341,66,31,0,-0.1044922,-0.9567871,-0.3166504,0,0,0,1.213657,22.21477,1,0.6721307,21.57954,0.9480697,0.4418005,0,0.9405835,1,1.04701,883.601,0,0,0,0,v1.7.5,b42db3cbbed4e482298d0c5195f61e63e,0,0,0,0,0,0,0,0,0,0,0,1,1920,1080,0,0,0,0,0,0,0,0,0,0,0,0
77,0074,-0.5145009,-0.1209603,0.8472536,-0.05309485,3.342604,1.233633,1.012716,1773713841,1773713841,14.550425,121.02886,2.1,0,2.1,1459.607,1458.875,1920,1080,974.0461,533.5496,0,1,168.5574,66,31,0,0.1101074,-0.9697266,-0.2067871,0,0,0,0.9474932,39.06881,1,0.7033008,20.34691,0.9608212,0.4477427,0,0.9413624,1,1.046394,895.4854,0,0,0,0,v1.7.5,b42db3cbbed4e482298d0c5195f61e63e,0,0,0,0,0,0,0,0,0,0,0,1,1920,1080,0,0,0,0,0,0,0,0,0,0,0,0
77,0075,-0.5520377,-0.1007515,0.8261308,-0.05110274,3.404568,1.219784,0.8176746,1773713841,1773713841,14.550425,121.02886,2.1,0,2.1,1459.607,1458.875,1920,1080,974.0461,533.5496,0,1,196.0724,66,31,0,0.1916504,-1.115967,-0.1435547,0,0,0,0.5693316,25.00265,1,0.7817209,19.04323,0.9675007,0.4508553,0,0.9417623,1,1.046077,901.7107,0,0,0,0,v1.7.5,b42db3cbbed4e482298d0c5195f61e63e,0,0,0,0,0,0,0,0,0,0,0,1,1920,1080,0,0,0,0,0,0,0,0,0,0,0,0
77,0076,-0.6138307,-0.1254971,0.7775018,-0.05434438,3.482759,1.225379,0.6397018,1773713842,1773713841,14.550425,121.02886,2.1,0,2.1,1459.607,1458.875,1920,1080,974.0461,533.5496,0,1,178.0675,66,31,0,0.0324707,-0.9711914,-0.2270508,0,0,0,1.172996,64.18719,1,0.8216872,26.57924,0.9234387,0.4303224,0,0.9390188,1,1.048248,860.6448,0,0,0,0,v1.7.5,b42db3cbbed4e482298d0c5195f61e63e,0,0,0,0,0,0,0,0,0,0,0,1,1920,1080,0,0,0,0,0,0,0,0,0,0,0,0
77,0077,-0.6486284,-0.1227505,0.7495277,-0.049214,3.518814,1.23006,0.4957008,1773713842,1773713842,14.5504383333333,121.028866666667,2.1,0,2.1,1459.607,1458.875,1920,1080,974.0461,533.5496,0,1,200.2274,66,31,0.3124364,0.1699219,-0.9643555,-0.1523438,0,0,0,0.4660726,0,1,0.7414471,27.88394,0.9294922,0.4331433,0,0.939411,1,1.047938,866.2867,0,0,0,0,v1.7.5,b42db3cbbed4e482298d0c5195f61e63e,0,0,0,0,0,0,0,0,0,0,0,1,1920,1080,0,0,0,0,0,0,0,0,0,0,0,0
77,0078,-0.6484356,-0.1157087,0.7515258,-0.0367678,3.554955,1.219304,0.3294907,1773713842,1773713842,14.5504383333333,121.028866666667,2.1,0,2.1,1459.607,1458.875,1920,1080,974.0461,533.5496,0,1,174.8098,66,31,0.3124364,0.04370117,-1.093262,-0.1884766,0,0,0,0.711146,10.58161,1,0.7866551,25.55103,0.9690245,0.4515654,0,0.9418527,1,1.046006,903.1309,0,0,0,0,v1.7.5,b42db3cbbed4e482298d0c5195f61e63e,0,0,0,0,0,0,0,0,0,0,0,1,1920,1080,0,0,0,0,0,0,0,0,0,0,0,0
77,0079,-0.6449957,-0.1078937,0.7553831,-0.04166722,3.560885,1.225713,0.1706896,1773713842,1773713842,14.5504383333333,121.028866666667,2.1,0,2.1,1459.607,1458.875,1920,1080,974.0461,533.5496,0,1,191.0504,66,31,0.3124364,0.09277344,-0.9291992,-0.1691895,0,0,0,0.6946857,5.359991,1,0.7491211,22.31778,0.9546371,0.4448609,0,0.9409872,1,1.046691,889.7217,0,0,0,0,v1.7.5,b42db3cbbed4e482298d0c5195f61e63e,0,0,0,0,0,0,0,0,0,0,0,1,1920,1080,0,0,0,0,0,0,0,0,0,0,0,0
77,0080,-0.6711204,-0.1023965,0.7330885,-0.04115514,3.544424,1.224897,-0.01578236,1773713843,1773713842,14.5504383333333,121.028866666667,2.1,0,2.1,1459.607,1458.875,1920,1080,974.0461,533.5496,0,1,176.7104,66,31,0.3124364,0.1088867,-1.022217,-0.2504883,0,0,0,0.9554548,32.76682,1,0.7652156,18.21807,0.979948,0.4566557,0,0.9424931,1,1.045499,913.3115,0,0,0,0,v1.7.5,b42db3cbbed4e482298d0c5195f61e63e,0,0,0,0,0,0,0,0,0,0,0,1,1920,1080,0,0,0,0,0,0,0,0,0,0,0,0
77,0081,-0.7227105,-0.111956,0.681313,-0.03111515,3.535876,1.208314,-0.1856251,1773713843,1773713842,14.5504383333333,121.028866666667,2.1,0,2.1,1459.607,1458.875,1920,1080,974.0461,533.5496,0,1,154.8448,66,30,0.3124364,-0.03051758,-0.8962402,-0.2705078,0,0,0,0.6847022,35.98113,1,0.8595457,23.78997,0.9341503,0.4353141,0,0.9397093,1,1.047702,870.6281,0,0,0,0,v1.7.5,b42db3cbbed4e482298d0c5195f61e63e,0,0,0,0,0,0,0,0,0,0,0,1,1920,1080,0,0,0,0,0,0,0,0,0,0,0,0
77,0082,-0.7621818,-0.1217867,0.6351469,-0.02890483,3.542788,1.223866,-0.3410387,1773713843,1773713842,14.5504383333333,121.028866666667,2.1,0,2.1,1459.607,1458.875,1920,1080,974.0461,533.5496,0,1,184.9017,66,30,0.3124364,0.09472656,-0.9287109,-0.1608887,0,0,0,0.6082025,21.38429,1,0.8043569,29.49127,0.9299341,0.4333493,0,0.9394394,1,1.047915,866.6986,0,0,0,0,v1.7.5,b42db3cbbed4e482298d0c5195f61e63e,0,0,0,0,0,0,0,0,0,0,0,1,1920,1080,0,0,0,0,0,0,0,0,0,0,0,0
77,0083,-0.7837959,-0.1159915,0.6094326,-0.02831743,3.516836,1.223088,-0.5012455,1773713844,1773713842,14.5504383333333,121.028866666667,2.1,0,2.1,1459.607,1458.875,1920,1080,974.0461,533.5496,0,1,211.8151,66,30,0.3124364,0.2131348,-1.063477,-0.159668,0,0,0,0.4879799,4.461071,1,0.7651041,30.30902,0.906686,0.4225157,0,0.9379067,1,1.049128,845.0313,0,0,0,0,v1.7.5,b42db3cbbed4e482298d0c5195f61e63e,0,0,0,0,0,0,0,0,0,0,0,1,1920,1080,0,0,0,0,0,0,0,0,0,0,0,0
77,0084,-0.7966838,-0.113241,0.5932585,-0.02271232,3.368958,1.220542,-0.7418852,1773713844,1773713844,14.5504516666667,121.028875,2.1,0,2.1,1459.607,1458.875,1920,1080,974.0461,533.5496,0,1,195.7647,66,29,0.3628792,0.1154785,-0.998291,-0.142334,0,0,0,3.183649,68.37141,1,0.8666606,29.14127,0.8895819,0.4145451,0,0.9367286,1,1.05006,829.0903,0,0,0,0,v1.7.5,b42db3cbbed4e482298d0c5195f61e63e,0,0,0,0,0,0,0,0,0,0,0,1,1920,1080,0,0,0,0,0,0,0,0,0,0,0,0
77,0085,-0.8151785,-0.1054829,0.5693104,-0.01559438,3.29745,1.216124,-0.9180174,1773713844,1773713844,14.5504516666667,121.028875,2.1,0,2.1,1459.607,1458.875,1920,1080,974.0461,533.5496,0,1,218.6851,66,29,0.3628792,0.1567383,-1.130859,-0.1071777,0,0,0,0.3484581,12.68077,1,0.7788404,17.11524,0.8210285,0.3825993,0,0.9315212,1,1.05418,765.1986,0,0,0,0,v1.7.5,b42db3cbbed4e482298d0c5195f61e63e,0,0,0,0,0,0,0,0,0,0,0,1,1920,1080,0,0,0,0,0,0,0,0,0,0,0,0
77,0086,-0.8623337,-0.134577,0.4881082,0.00449243,3.152367,1.217981,-1.158502,1773713845,1773713844,14.5504516666667,121.028875,2.1,0,2.1,1459.607,1458.875,1920,1080,974.0461,533.5496,0,1,213.8499,66,29,0.3628792,0.1713867,-1.003418,-0.1682129,0,0,0,1.685354,53.19936,1,0.887695,23.05528,0.9129501,0.4254347,0,0.9383273,1,1.048795,850.8695,0,0,0,0,v1.7.5,b42db3cbbed4e482298d0c5195f61e63e,0,0,0,0,0,0,0,0,0,0,0,1,1920,1080,0,0,0,0,0,0,0,0,0,0,0,0
77,0087,-0.8573479,-0.1185643,0.5006652,0.01521442,2.983361,1.204236,-1.339049,1773713845,1773713845,14.5504666666667,121.028876666667,2.1,0,2.1,1459.607,1458.875,1920,1080,974.0461,533.5496,0,1,201.2655,66,31,0.3947919,0.08007813,-1.011475,-0.1191406,0,0,0,0.9887006,26.97338,1,0.5818961,19.2928,0.9766992,0.4551418,0,0.9423044,1,1.045649,910.2836,0,0,0,0,v1.7.5,b42db3cbbed4e482298d0c5195f61e63e,0,0,0,0,0,0,0,0,0,0,0,1,1920,1080,0,0,0,0,0,0,0,0,0,0,0,0
77,0088,-0.8908703,-0.1223869,0.4368902,0.0223305,2.554067,1.222375,-1.652492,1773713846,1773713845,14.5504666666667,121.028876666667,2.1,0,2.1,1459.607,1458.875,1920,1080,974.0461,533.5496,0,1,223.5926,66,31,0.3947919,0.2004395,-0.9719238,-0.09423828,0,0,0,3.603566,91.20975,1,0.9091858,21.41966,0.9820088,0.4576161,0,0.9426123,1,1.045405,915.2322,0,0,0,0,v1.7.5,b42db3cbbed4e482298d0c5195f61e63e,0,0,0,0,0,0,0,0,0,0,0,1,1920,1080,0,0,0,0,0,0,0,0,0,0,0,0
77,0089,-0.8959477,-0.1259759,0.4255189,0.01847744,2.413408,1.226294,-1.761875,1773713846,1773713846,14.5504766666667,121.028875,2.1,0,2.1,1459.607,1458.875,1920,1080,974.0461,533.5496,0,1,122.3926,66,31,0.4251606,-0.1035156,-0.8503418,-0.3310547,0,0,0,0.5559013,3.898384,1,0.8776073,19.05339,1.058515,0.4932681,0,0.946714,1,1.04216,986.5361,0,0,0,0,v1.7.5,b42db3cbbed4e482298d0c5195f61e63e,0,0,0,0,0,0,0,0,0,0,0,1,1920,1080,0,0,0,0,0,0,0,0,0,0,0,0
77,0090,-0.8901131,-0.1199819,0.4396426,0.004171422,2.061123,1.219482,-1.890735,1773713847,1773713846,14.5504766666667,121.028875,2.1,0,2.1,1459.607,1458.875,1920,1080,974.0461,533.5496,0,1,189.3327,66,31,0.4251606,0.2033691,-1.12207,-0.2392578,0,0,0,0.4597459,15.61204,1,0.9610109,24.27027,0.9526521,0.4439359,0,0.9408658,1,1.046787,887.8718,0,0,0,0,v1.7.5,b42db3cbbed4e482298d0c5195f61e63e,0,0,0,0,0,0,0,0,0,0,0,1,1920,1080,0,0,0,0,0,0,0,0,0,0,0,0
77,0091,-0.9175019,-0.113518,0.3803229,-0.02566059,1.777297,1.197163,-2.050997,1773713847,1773713846,14.5504766666667,121.028875,2.1,0,2.1,1459.607,1458.875,1920,1080,974.0461,533.5496,0,1,202.8151,66,31,0.4251606,0.06665039,-0.9753417,-0.05493164,0,0,0,1.771013,46.28492,1,0.8933918,25.59319,1.007958,0.4697083,0,0.9440725,1,1.04425,939.4166,0,0,0,0,v1.7.5,b42db3cbbed4e482298d0c5195f61e63e,0,0,0,0,0,0,0,0,0,0,0,1,1920,1080,0,0,0,0,0,0,0,0,0,0,0,0
77,0092,-0.918987,-0.08889255,0.3839836,-0.0108433,1.40112,1.199225,-2.23497,1773713848,1773713847,14.5504866666667,121.028871666667,2,0,2,1459.607,1458.875,1920,1080,974.0461,533.5496,0,1,155.6541,66,32,0.4560439,0.02563477,-0.8879394,-0.171875,0,0,0,1.952371,51.8119,1,1.214283,28.5774,0.9894792,0.4610973,0,0.9431908,1,1.04512,922.1946,0,0,0,0,v1.7.5,b42db3cbbed4e482298d0c5195f61e63e,0,0,0,0,0,0,0,0,0,0,0,1,1920,1080,0,0,0,0,0,0,0,0,0,0,0,0
77,0093,-0.9347924,-0.07910099,0.3459926,-0.01397894,1.123384,1.214701,-2.341453,1773713848,1773713847,14.5504866666667,121.028871666667,2,0,2,1459.607,1458.875,1920,1080,974.0461,533.5496,0,1,115.6836,66,32,0.4560439,-0.177002,-0.9394531,-0.2265625,0,0,0,0.5011908,22.11331,1,0.9601062,17.32219,0.8544675,0.3981819,0,0.9341649,1,1.052089,796.3637,0,0,0,0,v1.7.5,b42db3cbbed4e482298d0c5195f61e63e,0,0,0,0,0,0,0,0,0,0,0,1,1920,1080,0,0,0,0,0,0,0,0,0,0,0,0
